#time,accel_x,accel_y,accel_z
815.780677,459.657299,-148.041188,9474.636058
815.780993,76.609550,-74.020594,9400.615463
815.781309,306.438199,-148.041188,9548.656652
815.781624,383.047749,-222.061783,9400.615463
815.781940,612.876398,-592.164754,9696.697840
815.782256,459.657299,-0.000000,9474.636058
815.782571,459.657299,-74.020594,9400.615463
815.782887,306.438199,-148.041188,9326.594869
815.783203,383.047749,-222.061783,9548.656652
815.783518,612.876398,-222.061783,9548.656652
815.783834,76.609550,-148.041188,9622.677246
815.784150,383.047749,-148.041188,9844.739029
815.784465,612.876398,-222.061783,9474.636058
815.784781,153.219100,-0.000000,9622.677246
815.785097,689.485948,-296.082377,9178.553681
815.785412,459.657299,-222.061783,9474.636058
815.785728,459.657299,-0.000000,9252.574275
815.786044,383.047749,444.123565,9030.512492
815.786359,153.219100,74.020594,9252.574275
815.786675,306.438199,-0.000000,9548.656652
815.786991,0.000000,-0.000000,9474.636058
815.787306,153.219100,-74.020594,9622.677246
815.787622,459.657299,-148.041188,9474.636058
815.787938,76.609550,-222.061783,9696.697840
815.788253,153.219100,-370.102971,9622.677246
815.788569,459.657299,-74.020594,9548.656652
815.788885,612.876398,148.041188,9474.636058
815.789200,459.657299,666.185348,9326.594869
815.789516,536.266849,962.267725,9252.574275
815.789832,536.266849,814.226536,9474.636058
815.790147,612.876398,666.185348,9104.533087
815.790463,459.657299,962.267725,9326.594869
815.790779,612.876398,444.123565,9400.615463
815.791094,689.485948,518.144159,9696.697840
815.791410,842.705048,-0.000000,9252.574275
815.791726,689.485948,444.123565,9770.718434
815.792041,1072.533697,518.144159,9770.718434
815.792357,766.095498,740.205942,9696.697840
815.792673,995.924147,740.205942,9474.636058
815.792988,1762.019645,1258.350101,9696.697840
815.793304,1838.629195,1554.432478,9474.636058
815.793620,1838.629195,1628.453072,9104.533087
815.793935,2068.457845,1628.453072,9030.512492
815.794251,2298.286494,1554.432478,9030.512492
815.794567,2528.115143,1406.391290,9252.574275
815.794882,2374.896044,1702.473667,9326.594869
815.795198,2451.505594,1628.453072,9326.594869
815.795514,2374.896044,1776.494261,9474.636058
815.795829,2451.505594,1924.535449,9474.636058
815.796145,2604.724693,1998.556043,9326.594869
815.796461,2374.896044,2220.617826,9696.697840
815.796776,2834.553343,2294.638420,9474.636058
815.797092,2911.162892,2294.638420,9474.636058
815.797408,3064.381992,2516.700203,9474.636058
815.797723,3907.087040,2368.659014,9252.574275
815.798039,3370.820191,2442.679609,9252.574275
815.798355,3294.210641,2516.700203,9252.574275
815.798670,3447.429741,2442.679609,9252.574275
815.798986,3524.039291,2442.679609,9474.636058
815.799302,3140.991542,2442.679609,9474.636058
815.799617,3140.991542,2738.761985,9622.677246
815.799933,2987.772442,2590.720797,9474.636058
815.800249,2987.772442,2664.741391,9844.739029
815.800564,2987.772442,2442.679609,9770.718434
815.800880,2757.943793,2072.576638,9696.697840
815.801196,2681.334243,2368.659014,9918.759623
815.801511,2757.943793,2072.576638,9918.759623
815.801827,2604.724693,1924.535449,10140.821405
815.802143,2451.505594,2072.576638,9992.780217
815.802458,2298.286494,2072.576638,9696.697840
815.802774,2451.505594,2368.659014,9696.697840
815.803090,2604.724693,2294.638420,9696.697840
815.803405,2757.943793,2294.638420,9844.739029
815.803721,2757.943793,2368.659014,9474.636058
815.804037,2757.943793,1924.535449,9474.636058
815.804352,2451.505594,1924.535449,9474.636058
815.804668,2528.115143,1850.514855,9474.636058
815.804984,2451.505594,2072.576638,9474.636058
815.805299,2068.457845,1776.494261,9326.594869
815.805615,1608.800546,1332.370696,9770.718434
815.805931,842.705048,666.185348,9992.780217
815.806246,689.485948,148.041188,10066.800811
815.806562,383.047749,-0.000000,10658.965565
815.806878,536.266849,-370.102971,10732.986159
815.807193,612.876398,-666.185348,11103.089130
815.807509,995.924147,-518.144159,10658.965565
815.807825,1532.190996,296.082377,10214.842000
815.808140,2145.067394,1110.308913,9622.677246
815.808456,2374.896044,1702.473667,8956.491898
815.808772,3600.648841,2220.617826,8364.327145
815.809087,4443.353888,3108.864956,7624.121203
815.809403,4366.744339,2886.803174,7031.956449
815.809719,4673.182538,2590.720797,7105.977043
815.810034,4366.744339,2146.597232,7328.038826
815.810350,3753.867940,1406.391290,7624.121203
815.810666,2757.943793,1110.308913,8586.388927
815.810981,1915.238745,814.226536,9178.553681
815.811297,919.314598,592.164754,9918.759623
815.811613,76.609550,-0.000000,10362.883188
815.811928,-766.095498,-296.082377,10584.944971
815.812244,-842.705048,-666.185348,11177.109724
815.812560,-1072.533697,-1258.350101,11177.109724
815.812875,-383.047749,-1110.308913,11177.109724
815.813191,76.609550,-740.205942,10881.027347
815.813507,919.314598,222.061783,10362.883188
815.813822,2145.067394,1036.288319,9400.615463
815.814138,3370.820191,2220.617826,8956.491898
815.814454,4596.572988,3182.885551,8216.285956
815.814769,5669.106685,3701.029710,7476.080014
815.815085,6281.983084,3849.070898,6809.894666
815.815401,6435.202183,4441.235652,6661.853478
815.815716,6588.421283,4589.276840,6735.874072
815.816032,6435.202183,4293.194464,7105.977043
815.816348,5286.058936,3627.009116,8142.265362
815.816663,4443.353888,2294.638420,8808.450710
815.816979,2681.334243,1258.350101,10066.800811
815.817295,1149.143247,-0.000000,11325.150913
815.817610,0.000000,-740.205942,12657.521608
815.817926,-689.485948,-1332.370696,13323.706956
815.818242,-919.314598,-370.102971,13545.768739
815.818557,-842.705048,370.102971,12879.583391
815.818873,153.219100,1480.411884,11695.253884
815.819189,919.314598,2664.741391,10288.862594
815.819504,2298.286494,3404.947333,9252.574275
815.819820,3677.258390,4367.215058,7698.141797
815.820136,5056.230287,4145.153275,7105.977043
815.820451,5898.935335,3775.050304,7105.977043
815.820767,6052.154434,3256.906145,7624.121203
815.821083,6128.763984,2368.659014,8216.285956
815.821398,5056.230287,2294.638420,8512.368333
815.821714,4596.572988,2294.638420,10140.821405
815.822030,3677.258390,2368.659014,10881.027347
815.822345,2834.553343,2368.659014,11547.212695
815.822661,2068.457845,2664.741391,11177.109724
815.822977,1149.143247,3108.864956,10510.924376
815.823292,1608.800546,3256.906145,10436.903782
815.823608,1838.629195,2664.741391,10288.862594
815.823924,1915.238745,2368.659014,10288.862594
815.824239,1378.971896,1998.556043,9622.677246
815.824555,1532.190996,1628.453072,8882.471304
815.824871,1838.629195,1332.370696,9548.656652
815.825186,1991.848295,1924.535449,9178.553681
815.825502,2145.067394,2368.659014,9326.594869
815.825818,1378.971896,2294.638420,9474.636058
815.826133,766.095498,2442.679609,9326.594869
815.826449,1608.800546,1850.514855,9696.697840
815.826765,2298.286494,888.247130,10140.821405
815.827080,1685.410096,1554.432478,10362.883188
815.827396,1378.971896,1332.370696,10584.944971
815.827712,2145.067394,1036.288319,10881.027347
815.828027,2451.505594,1850.514855,10288.862594
815.828343,2911.162892,2812.782580,9474.636058
815.828659,3447.429741,4367.215058,7698.141797
815.828974,3983.696590,4145.153275,7105.977043
815.829290,4903.011187,3478.967927,7105.977043
815.829606,5132.839837,3552.988522,6365.771101
815.829921,4519.963438,2960.823768,7105.977043
815.830237,3753.867940,1998.556043,8512.368333
815.830553,2528.115143,74.020594,8734.430116
815.830868,1455.581446,-814.226536,10066.800811
815.831184,-76.609550,222.061783,11769.274478
815.831500,-612.876398,518.144159,11769.274478
815.831815,-229.828649,962.267725,11843.295072
815.832131,229.828649,1036.288319,10955.047942
815.832447,153.219100,1258.350101,10140.821405
815.832762,1225.752797,1480.411884,10732.986159
815.833078,2834.553343,962.267725,10066.800811
815.833394,3064.381992,962.267725,9326.594869
815.833709,3907.087040,2368.659014,8216.285956
815.834025,4979.620737,2664.741391,7772.162391
815.834341,5592.497135,3108.864956,7254.018232
815.834656,5209.449386,3256.906145,7476.080014
815.834972,5439.278036,2886.803174,7402.059420
815.835288,5209.449386,2442.679609,7550.100608
815.835603,4443.353888,2220.617826,8956.491898
815.835919,3064.381992,2220.617826,9252.574275
815.836235,2298.286494,1776.494261,9400.615463
815.836550,1608.800546,1258.350101,10214.842000
815.836866,536.266849,814.226536,11177.109724
815.837182,-689.485948,-370.102971,11917.315666
815.837497,-766.095498,-1110.308913,12435.459826
815.837813,-1149.143247,-1110.308913,11917.315666
815.838129,-536.266849,-370.102971,11325.150913
815.838444,995.924147,-0.000000,11029.068536
815.838760,2528.115143,1258.350101,10214.842000
815.839076,2604.724693,2368.659014,8512.368333
815.839391,3524.039291,2516.700203,7772.162391
815.839707,4673.182538,2368.659014,8216.285956
815.840023,4443.353888,3775.050304,7624.121203
815.840338,4596.572988,3552.988522,7846.182985
815.840654,4673.182538,2220.617826,8438.347739
815.840970,3907.087040,2442.679609,8438.347739
815.841285,3370.820191,2812.782580,9178.553681
815.841601,2757.943793,518.144159,11029.068536
815.841917,1455.581446,1998.556043,10214.842000
815.842232,383.047749,2960.823768,10510.924376
815.842548,1608.800546,592.164754,11251.130318
815.842864,1838.629195,1776.494261,10955.047942
815.843180,459.657299,1258.350101,10510.924376
815.843496,766.095498,518.144159,9696.697840
815.843811,1455.581446,370.102971,9770.718434
815.844127,1302.362347,1628.453072,10066.800811
815.844443,2451.505594,1184.329507,8882.471304
815.844759,2145.067394,1924.535449,7994.224174
815.845074,1685.410096,2368.659014,9252.574275
815.845390,2145.067394,1702.473667,9030.512492
815.845706,1762.019645,2146.597232,8290.306550
815.846022,1838.629195,2294.638420,9622.677246
815.846337,2374.896044,1258.350101,10288.862594
815.846653,2374.896044,1554.432478,9252.574275
815.846969,2374.896044,1850.514855,9696.697840
815.847285,1991.848295,2220.617826,9474.636058
815.847601,2221.676944,2442.679609,8734.430116
815.847916,3447.429741,1924.535449,9696.697840
815.848232,2528.115143,1850.514855,9178.553681
815.848548,2145.067394,2072.576638,8586.388927
815.848864,2451.505594,1406.391290,9474.636058
815.849179,1838.629195,1998.556043,8586.388927
815.849495,2068.457845,1554.432478,9030.512492
815.849811,2528.115143,962.267725,9474.636058
815.850127,1378.971896,1332.370696,9326.594869
815.850442,766.095498,370.102971,10658.965565
815.850758,766.095498,296.082377,11029.068536
815.851074,1149.143247,1406.391290,9696.697840
815.851390,1685.410096,1850.514855,10214.842000
815.851706,2145.067394,1406.391290,10584.944971
815.852021,2221.676944,1850.514855,10436.903782
815.852337,2681.334243,2368.659014,9400.615463
815.852653,3677.258390,2590.720797,8068.244768
815.852969,4443.353888,2072.576638,8438.347739
815.853284,5056.230287,1702.473667,9252.574275
815.853600,4749.792088,2294.638420,8290.306550
815.853916,4060.306139,1998.556043,8216.285956
815.854232,3447.429741,2368.659014,8586.388927
815.854547,3524.039291,2442.679609,8290.306550
815.854863,2528.115143,1924.535449,9326.594869
815.855179,1608.800546,1554.432478,10140.821405
815.855495,0.000000,-74.020594,10658.965565
815.855811,-689.485948,-370.102971,11769.274478
815.856126,-153.219100,-370.102971,10881.027347
815.856442,-153.219100,-1406.391290,11251.130318
815.856758,-459.657299,-222.061783,10955.047942
815.857074,-689.485948,-148.041188,10214.842000
815.857389,-842.705048,-222.061783,10140.821405
815.857705,689.485948,370.102971,9918.759623
815.858021,1302.362347,74.020594,8956.491898
815.858337,1685.410096,740.205942,9252.574275
815.858652,1149.143247,-0.000000,9252.574275
815.858968,1532.190996,296.082377,8364.327145
815.859284,2604.724693,740.205942,9400.615463
815.859600,2604.724693,148.041188,9104.533087
815.859915,2374.896044,962.267725,9030.512492
815.860231,1608.800546,962.267725,7846.182985
815.860547,919.314598,1258.350101,8216.285956
815.860863,1225.752797,222.061783,10584.944971
815.861179,612.876398,-222.061783,9992.780217
815.861494,0.000000,-296.082377,9548.656652
815.861810,-1302.362347,-1258.350101,9770.718434
815.862126,-1838.629195,-1554.432478,10955.047942
815.862442,-1455.581446,-2368.659014,10732.986159
815.862757,-1225.752797,-1406.391290,10732.986159
815.863073,-1378.971896,-814.226536,9548.656652
815.863389,-1378.971896,-1184.329507,9548.656652
815.863705,-383.047749,-888.247130,9326.594869
815.864020,76.609550,-1628.453072,9104.533087
815.864336,76.609550,-370.102971,9622.677246
815.864652,842.705048,-888.247130,8956.491898
815.864968,689.485948,-222.061783,8512.368333
815.865284,689.485948,1406.391290,7105.977043
815.865599,1532.190996,-74.020594,8808.450710
815.865915,1838.629195,518.144159,8142.265362
815.866231,1532.190996,962.267725,7846.182985
815.866547,1072.533697,962.267725,7402.059420
815.866862,842.705048,222.061783,7920.203579
815.867178,76.609550,-1702.473667,9104.533087
815.867494,-306.438199,-1998.556043,10214.842000
815.867810,-1685.410096,-1480.411884,10436.903782
815.868125,-2145.067394,-1406.391290,10436.903782
815.868441,-1608.800546,-296.082377,10066.800811
815.868757,-1532.190996,-1406.391290,10732.986159
815.869073,-1149.143247,-592.164754,10288.862594
815.869389,-1225.752797,-148.041188,9400.615463
815.869704,-612.876398,814.226536,8956.491898
815.870020,842.705048,814.226536,8734.430116
815.870336,1838.629195,148.041188,8512.368333
815.870652,1685.410096,1406.391290,8660.409521
815.870967,1608.800546,1258.350101,8438.347739
815.871283,1455.581446,1554.432478,7772.162391
815.871599,1685.410096,1184.329507,9326.594869
815.871915,1685.410096,-296.082377,9770.718434
815.872230,1532.190996,-0.000000,10066.800811
815.872546,919.314598,-296.082377,9844.739029
815.872862,612.876398,-296.082377,10066.800811
815.873178,1378.971896,-592.164754,10955.047942
815.873493,612.876398,-592.164754,10658.965565
815.873809,459.657299,-0.000000,10955.047942
815.874125,0.000000,518.144159,10140.821405
815.874441,0.000000,296.082377,9252.574275
815.874757,689.485948,-0.000000,10732.986159
815.875072,1072.533697,518.144159,10362.883188
815.875388,1455.581446,296.082377,8956.491898
815.875704,1149.143247,888.247130,9030.512492
815.876020,2374.896044,-0.000000,9326.594869
815.876335,2528.115143,-0.000000,9104.533087
815.876651,1762.019645,518.144159,9770.718434
815.876967,1149.143247,-0.000000,9178.553681
815.877283,842.705048,296.082377,9770.718434
815.877598,1455.581446,-0.000000,10658.965565
815.877914,229.828649,-74.020594,9474.636058
815.878230,-153.219100,222.061783,10658.965565
815.878546,-842.705048,-74.020594,9844.739029
815.878862,-612.876398,222.061783,9030.512492
815.879177,-76.609550,222.061783,9992.780217
815.879493,-306.438199,-222.061783,9474.636058
815.879809,-766.095498,-518.144159,9696.697840
815.880125,-842.705048,-1628.453072,9918.759623
815.880440,-459.657299,-1110.308913,9992.780217
815.880756,0.000000,-370.102971,9696.697840
815.881072,0.000000,-296.082377,9844.739029
815.881388,0.000000,-0.000000,9030.512492
815.881703,306.438199,814.226536,8216.285956
815.882019,1149.143247,1184.329507,7624.121203
815.882335,1378.971896,962.267725,8068.244768
815.882651,995.924147,296.082377,8882.471304
815.882967,766.095498,-444.123565,8734.430116
815.883282,-76.609550,-444.123565,8586.388927
815.883598,536.266849,-740.205942,9770.718434
815.883914,76.609550,-222.061783,9844.739029
815.884230,-229.828649,296.082377,8956.491898
815.884545,0.000000,-296.082377,9400.615463
815.884861,-689.485948,-444.123565,8660.409521
815.885177,0.000000,-740.205942,10436.903782
815.885493,-229.828649,-1036.288319,10510.924376
815.885808,-306.438199,-222.061783,9178.553681
815.886124,-766.095498,-74.020594,9252.574275
815.886440,383.047749,-0.000000,8364.327145
815.886756,689.485948,222.061783,9844.739029
815.887072,536.266849,-0.000000,10066.800811
815.887387,0.000000,-0.000000,9548.656652
815.887703,306.438199,-296.082377,8290.306550
815.888019,1378.971896,-0.000000,8660.409521
815.888335,1455.581446,-740.205942,9844.739029
815.888650,1149.143247,-1184.329507,11029.068536
815.888966,612.876398,-444.123565,9548.656652
815.889282,229.828649,-666.185348,8438.347739
815.889598,995.924147,-518.144159,10214.842000
815.889913,612.876398,-666.185348,10436.903782
815.890229,153.219100,-296.082377,9548.656652
815.890545,0.000000,-370.102971,9400.615463
815.890861,76.609550,-962.267725,9918.759623
815.891176,536.266849,-444.123565,10362.883188
815.891492,229.828649,-518.144159,9622.677246
815.891808,-153.219100,-444.123565,9844.739029
815.892124,-229.828649,-740.205942,9548.656652
815.892440,383.047749,-518.144159,10140.821405
815.892755,1225.752797,-444.123565,10362.883188
815.893071,306.438199,-370.102971,10288.862594
815.893387,0.000000,-370.102971,9770.718434
815.893703,76.609550,-0.000000,8808.450710
815.894018,995.924147,518.144159,9252.574275
815.894334,459.657299,1258.350101,9104.533087
815.894650,919.314598,-666.185348,9548.656652
815.894966,306.438199,-1184.329507,9326.594869
815.895281,0.000000,592.164754,8956.491898
815.895597,612.876398,-1924.535449,9474.636058
815.895913,1072.533697,-444.123565,10881.027347
815.896229,-459.657299,296.082377,9030.512492
815.896545,-383.047749,-0.000000,9400.615463
815.896860,459.657299,-0.000000,9178.553681
815.897176,383.047749,-370.102971,9104.533087
815.897492,842.705048,222.061783,9696.697840
815.897808,76.609550,-518.144159,9252.574275
815.898123,0.000000,-444.123565,9474.636058
815.898439,1225.752797,-296.082377,8808.450710
815.898755,1149.143247,222.061783,9030.512492
815.899071,1149.143247,666.185348,10140.821405
815.899386,153.219100,740.205942,8808.450710
815.899702,919.314598,740.205942,7994.224174
815.900018,1608.800546,518.144159,8882.471304
815.900334,1149.143247,-222.061783,9400.615463
815.900650,1838.629195,-148.041188,9918.759623
815.900965,306.438199,-592.164754,8734.430116
815.901281,76.609550,-518.144159,9178.553681
815.901597,842.705048,-0.000000,10807.006753
815.901913,306.438199,-444.123565,10214.842000
815.902228,153.219100,-0.000000,9918.759623
815.902544,-383.047749,-444.123565,9178.553681
815.902860,459.657299,-222.061783,8956.491898
815.903176,1455.581446,-1110.308913,9696.697840
815.903491,1455.581446,-592.164754,10584.944971
815.903807,1455.581446,148.041188,9104.533087
815.904123,536.266849,444.123565,8142.265362
815.904439,1838.629195,370.102971,8586.388927
815.904754,1991.848295,518.144159,9548.656652
815.905070,1302.362347,962.267725,9400.615463
815.905386,919.314598,222.061783,8586.388927
815.905702,689.485948,-814.226536,8660.409521
815.906018,1225.752797,-148.041188,9400.615463
815.906333,1225.752797,-0.000000,10436.903782
815.906649,459.657299,444.123565,9252.574275
815.906965,-306.438199,370.102971,8512.368333
815.907281,-689.485948,-222.061783,9252.574275
815.907596,-383.047749,-148.041188,10955.047942
815.907912,-306.438199,-740.205942,11547.212695
815.908228,-1149.143247,-0.000000,9474.636058
815.908544,-1149.143247,-740.205942,9918.759623
815.908859,-689.485948,-592.164754,9474.636058
815.909175,229.828649,-0.000000,9548.656652
815.909491,612.876398,518.144159,10066.800811
815.909807,76.609550,666.185348,9252.574275
815.910123,0.000000,-0.000000,9030.512492
815.910438,76.609550,-370.102971,9770.718434
815.910754,919.314598,-518.144159,10807.006753
815.911070,919.314598,-74.020594,10288.862594
815.911386,766.095498,444.123565,9252.574275
815.911701,766.095498,-222.061783,9326.594869
815.912017,1532.190996,814.226536,8956.491898
815.912333,1838.629195,740.205942,8734.430116
815.912649,1378.971896,370.102971,9178.553681
815.912964,689.485948,-74.020594,9104.533087
815.913280,153.219100,-1110.308913,9474.636058
815.913596,995.924147,-1702.473667,10288.862594
815.913912,229.828649,-1480.411884,10658.965565
815.914228,-842.705048,-666.185348,10288.862594
815.914543,-612.876398,-1036.288319,9474.636058
815.914859,-612.876398,-962.267725,8586.388927
815.915175,-153.219100,-962.267725,10732.986159
815.915491,0.000000,-1332.370696,10288.862594
815.915806,-306.438199,-740.205942,9770.718434
815.916122,-229.828649,-888.247130,9326.594869
815.916438,383.047749,-296.082377,8956.491898
815.916754,1302.362347,-666.185348,9918.759623
815.917069,1072.533697,-0.000000,8808.450710
815.917385,842.705048,296.082377,9474.636058
815.917701,1149.143247,-0.000000,7994.224174
815.918017,1762.019645,-444.123565,8734.430116
815.918333,1685.410096,-0.000000,8882.471304
815.918648,1378.971896,444.123565,9252.574275
815.918964,842.705048,-222.061783,9474.636058
815.919280,76.609550,-222.061783,8512.368333
815.919596,383.047749,-0.000000,9474.636058
815.919911,306.438199,-0.000000,9696.697840
815.920227,-459.657299,148.041188,9622.677246
815.920543,-689.485948,-1036.288319,9474.636058
815.920859,-919.314598,-1332.370696,9326.594869
815.921174,383.047749,-740.205942,10362.883188
815.921490,612.876398,-592.164754,10510.924376
815.921806,76.609550,666.185348,9030.512492
815.922122,-536.266849,-962.267725,9104.533087
815.922437,536.266849,-1110.308913,9622.677246
815.922753,1378.971896,-296.082377,9548.656652
815.923069,1072.533697,444.123565,9178.553681
815.923385,612.876398,-0.000000,9030.512492
815.923701,229.828649,-444.123565,8216.285956
815.924016,1225.752797,-74.020594,9326.594869
815.924332,1225.752797,-0.000000,9622.677246
815.924648,459.657299,-0.000000,9474.636058
815.924964,153.219100,-370.102971,9548.656652
815.925279,-536.266849,-1110.308913,9474.636058
815.925595,153.219100,-888.247130,10584.944971
815.925911,1072.533697,-888.247130,10807.006753
815.926227,153.219100,-296.082377,9474.636058
815.926542,0.000000,-0.000000,8956.491898
815.926858,0.000000,-740.205942,8808.450710
815.927174,919.314598,-296.082377,9400.615463
815.927490,1608.800546,-222.061783,10658.965565
815.927806,689.485948,370.102971,8882.471304
815.928121,-229.828649,222.061783,8808.450710
815.928437,536.266849,-814.226536,9474.636058
815.928753,1685.410096,-370.102971,9918.759623
815.929069,919.314598,518.144159,9992.780217
815.929384,306.438199,740.205942,9696.697840
815.929700,229.828649,740.205942,7698.141797
815.930016,153.219100,592.164754,7994.224174
815.930332,842.705048,-0.000000,10066.800811
815.930647,689.485948,518.144159,10066.800811
815.930963,0.000000,1110.308913,9252.574275
815.931279,-153.219100,-0.000000,8808.450710
815.931595,0.000000,-0.000000,9844.739029
815.931911,459.657299,-740.205942,11695.253884
815.932226,153.219100,666.185348,9178.553681
815.932542,-306.438199,592.164754,9326.594869
815.932858,-459.657299,-148.041188,9252.574275
815.933174,459.657299,222.061783,10362.883188
815.933489,766.095498,740.205942,9770.718434
815.933805,153.219100,666.185348,9104.533087
815.934121,0.000000,148.041188,9770.718434
815.934437,306.438199,-518.144159,9474.636058
815.934752,1225.752797,-148.041188,9474.636058
815.935068,1608.800546,-0.000000,10140.821405
815.935384,1225.752797,296.082377,9622.677246
815.935700,995.924147,-0.000000,8512.368333
815.936015,842.705048,296.082377,8808.450710
815.936331,2068.457845,-148.041188,10140.821405
815.936647,1149.143247,-370.102971,9992.780217
815.936963,689.485948,-0.000000,9252.574275
815.937279,153.219100,-1036.288319,9178.553681
815.937594,306.438199,-814.226536,8882.471304
815.937910,383.047749,-1258.350101,10658.965565
815.938226,0.000000,-592.164754,10584.944971
815.938542,-536.266849,-1110.308913,10214.842000
815.938857,-612.876398,-888.247130,8586.388927
815.939173,0.000000,-814.226536,9252.574275
815.939489,0.000000,-1776.494261,10584.944971
815.939805,-383.047749,-888.247130,10288.862594
815.940120,-842.705048,-518.144159,9770.718434
815.940436,-689.485948,-666.185348,7994.224174
815.940752,689.485948,-518.144159,9326.594869
815.941067,536.266849,-962.267725,10066.800811
815.941383,689.485948,-148.041188,9400.615463
815.941699,689.485948,-444.123565,8586.388927
815.942015,383.047749,-592.164754,8808.450710
815.942330,1225.752797,370.102971,8216.285956
815.942646,1455.581446,-0.000000,9474.636058
815.942962,536.266849,148.041188,8660.409521
815.943277,0.000000,-518.144159,9178.553681
815.943593,229.828649,-370.102971,9178.553681
815.943909,383.047749,-592.164754,9992.780217
815.944225,-536.266849,-74.020594,9918.759623
815.944540,76.609550,-0.000000,9548.656652
815.944856,-306.438199,-222.061783,7624.121203
815.945172,0.000000,-0.000000,8882.471304
815.945487,306.438199,-1036.288319,10362.883188
815.945803,-229.828649,-1258.350101,10140.821405
815.946119,-153.219100,-1036.288319,9844.739029
815.946435,-306.438199,-518.144159,8364.327145
815.946750,306.438199,-370.102971,9474.636058
815.947066,919.314598,-0.000000,10436.903782
815.947382,995.924147,-0.000000,9548.656652
815.947697,76.609550,-296.082377,8808.450710
815.948013,76.609550,-814.226536,9400.615463
815.948329,1072.533697,-666.185348,9474.636058
815.948645,1378.971896,-74.020594,9918.759623
815.948960,1302.362347,-0.000000,10732.986159
815.949276,229.828649,-148.041188,9252.574275
815.949592,1072.533697,-148.041188,9178.553681
815.949907,1302.362347,222.061783,9844.739029
815.950223,919.314598,370.102971,10066.800811
815.950539,995.924147,296.082377,9030.512492
815.950855,919.314598,-0.000000,8660.409521
815.951170,919.314598,370.102971,9326.594869
815.951486,1608.800546,444.123565,10584.944971
815.951802,1072.533697,222.061783,9474.636058
815.952117,0.000000,-74.020594,8956.491898
815.952433,229.828649,-296.082377,9548.656652
815.952749,689.485948,-518.144159,9992.780217
815.953065,383.047749,-0.000000,10807.006753
815.953380,0.000000,518.144159,10436.903782
815.953696,-459.657299,296.082377,9104.533087
815.954012,0.000000,296.082377,7698.141797
815.954327,612.876398,148.041188,9548.656652
815.954643,229.828649,-296.082377,10955.047942
815.954959,153.219100,-296.082377,9770.718434
815.955275,-536.266849,-74.020594,8438.347739
815.955590,0.000000,-370.102971,9178.553681
815.955906,536.266849,-962.267725,11177.109724
815.956222,229.828649,-296.082377,10214.842000
815.956537,-229.828649,814.226536,8734.430116
815.956853,-229.828649,-0.000000,9104.533087
815.957169,306.438199,222.061783,8956.491898
815.957485,612.876398,370.102971,9178.553681
815.957800,689.485948,296.082377,9696.697840
815.958116,76.609550,-444.123565,9178.553681
815.958432,0.000000,-518.144159,9104.533087
815.958747,842.705048,222.061783,9030.512492
815.959063,766.095498,-0.000000,9770.718434
815.959379,612.876398,-0.000000,9474.636058
815.959695,-383.047749,-222.061783,8512.368333
815.960010,229.828649,-0.000000,8956.491898
815.960326,689.485948,-296.082377,9400.615463
815.960642,689.485948,-0.000000,9696.697840
815.960957,612.876398,-222.061783,9770.718434
815.961273,-306.438199,-296.082377,8808.450710
815.961589,-612.876398,-296.082377,9104.533087
815.961905,766.095498,-1702.473667,11251.130318
815.962220,0.000000,-0.000000,10510.924376
815.962536,0.000000,-148.041188,9326.594869
815.962852,0.000000,-0.000000,8512.368333
815.963167,995.924147,-296.082377,8882.471304
815.963483,1302.362347,-666.185348,10140.821405
815.963799,1608.800546,444.123565,9622.677246
815.964115,612.876398,-444.123565,9178.553681
815.964430,612.876398,-592.164754,8882.471304
815.964746,1302.362347,-0.000000,9104.533087
815.965062,1532.190996,-444.123565,10288.862594
815.965377,689.485948,-74.020594,9178.553681
815.965693,689.485948,-592.164754,9326.594869
815.966009,383.047749,-888.247130,8808.450710
815.966325,995.924147,-888.247130,9400.615463
815.966640,612.876398,-444.123565,9918.759623
815.966956,306.438199,-74.020594,9252.574275
815.967272,536.266849,-814.226536,9252.574275
815.967588,0.000000,-888.247130,9474.636058
815.967903,229.828649,-1110.308913,11399.171507
815.968219,459.657299,-1184.329507,10807.006753
815.968535,-536.266849,-814.226536,9252.574275
815.968850,-842.705048,-592.164754,8882.471304
815.969166,383.047749,-518.144159,8882.471304
815.969482,383.047749,-888.247130,9696.697840
815.969798,766.095498,-0.000000,10140.821405
815.970113,153.219100,-444.123565,8956.491898
815.970429,-229.828649,-444.123565,8216.285956
815.970745,612.876398,-370.102971,9770.718434
815.971060,536.266849,-888.247130,9696.697840
815.971376,383.047749,-74.020594,9548.656652
815.971692,0.000000,-222.061783,8808.450710
815.972008,383.047749,-962.267725,9104.533087
815.972323,1455.581446,-592.164754,9400.615463
815.972639,995.924147,-148.041188,9474.636058
815.972955,459.657299,518.144159,9622.677246
815.973270,229.828649,-148.041188,8512.368333
815.973586,306.438199,148.041188,9030.512492
815.973902,612.876398,666.185348,9992.780217
815.974218,459.657299,-740.205942,10510.924376
815.974533,229.828649,-74.020594,9696.697840
815.974849,-612.876398,666.185348,8734.430116
815.975165,842.705048,-148.041188,8734.430116
815.975480,1302.362347,-74.020594,10658.965565
815.975796,612.876398,1036.288319,9844.739029
815.976112,383.047749,444.123565,9104.533087
815.976428,0.000000,222.061783,8956.491898
815.976743,383.047749,148.041188,9252.574275
815.977059,1378.971896,-222.061783,10658.965565
815.977375,612.876398,148.041188,9918.759623
815.977690,-459.657299,-0.000000,10288.862594
815.978006,536.266849,-0.000000,8512.368333
815.978322,1225.752797,-74.020594,8734.430116
815.978638,689.485948,518.144159,10807.006753
815.978953,842.705048,222.061783,10066.800811
815.979269,459.657299,370.102971,8438.347739
815.979585,229.828649,296.082377,9030.512492
815.979900,612.876398,-666.185348,10066.800811
815.980216,689.485948,-296.082377,10955.047942
815.980532,76.609550,518.144159,9474.636058
815.980848,-383.047749,-148.041188,8438.347739
815.981163,383.047749,444.123565,9326.594869
815.981479,689.485948,148.041188,9548.656652
815.981795,536.266849,296.082377,10510.924376
815.982110,0.000000,-222.061783,9844.739029
815.982426,-229.828649,-444.123565,8290.306550
815.982742,153.219100,-74.020594,10214.842000
815.983058,612.876398,-148.041188,10510.924376
815.983373,153.219100,-74.020594,10066.800811
815.983689,-153.219100,148.041188,9400.615463
815.984005,-306.438199,-0.000000,8290.306550
815.984320,459.657299,-444.123565,9548.656652
815.984636,306.438199,-518.144159,10140.821405
815.984952,306.438199,-222.061783,9030.512492
815.985268,-153.219100,-1258.350101,9252.574275
815.985583,153.219100,-1036.288319,9918.759623
815.985899,459.657299,-814.226536,9474.636058
815.986215,536.266849,-1036.288319,10436.903782
815.986530,536.266849,-0.000000,9400.615463
815.986846,153.219100,-0.000000,8364.327145
815.987162,766.095498,-0.000000,8512.368333
815.987478,1455.581446,-370.102971,9104.533087
815.987793,995.924147,-74.020594,9474.636058
815.988109,1302.362347,-370.102971,9104.533087
815.988425,153.219100,-666.185348,8882.471304
815.988740,306.438199,-592.164754,9104.533087
815.989056,842.705048,-222.061783,10584.944971
815.989372,689.485948,-0.000000,9400.615463
815.989688,76.609550,-74.020594,10066.800811
815.990003,76.609550,-222.061783,9030.512492
815.990319,689.485948,-74.020594,9030.512492
815.990635,766.095498,-222.061783,10214.842000
815.990950,536.266849,-296.082377,9622.677246
815.991266,153.219100,-0.000000,9252.574275
815.991582,0.000000,-0.000000,9104.533087
815.991898,1072.533697,-0.000000,9474.636058
815.992213,306.438199,-592.164754,10436.903782
815.992529,306.438199,148.041188,10214.842000
815.992845,-459.657299,-518.144159,8882.471304
815.993160,306.438199,-592.164754,8660.409521
815.993476,1225.752797,-888.247130,10362.883188
815.993792,612.876398,-666.185348,10214.842000
815.994108,536.266849,-0.000000,9400.615463
815.994423,0.000000,-222.061783,7846.182985
815.994739,612.876398,-148.041188,9178.553681
815.995055,536.266849,-74.020594,11177.109724
815.995370,383.047749,-0.000000,9474.636058
815.995686,-536.266849,-370.102971,8956.491898
815.996002,-306.438199,-814.226536,9178.553681
815.996318,1378.971896,-1110.308913,8956.491898
815.996633,612.876398,-962.267725,9696.697840
815.996949,536.266849,-0.000000,9992.780217
815.997265,0.000000,-666.185348,9548.656652
815.997580,76.609550,-0.000000,8734.430116
815.997896,383.047749,-0.000000,9474.636058
815.998212,689.485948,-74.020594,10584.944971
815.998528,383.047749,-0.000000,10288.862594
815.998843,0.000000,-0.000000,7920.203579
815.999159,76.609550,222.061783,8660.409521
815.999475,1072.533697,-666.185348,10436.903782
815.999790,689.485948,-0.000000,9844.739029
816.000106,766.095498,740.205942,9474.636058
816.000422,-306.438199,-0.000000,8290.306550
816.000738,0.000000,-296.082377,9252.574275
816.001053,919.314598,-0.000000,11251.130318
816.001369,612.876398,518.144159,9622.677246
816.001685,612.876398,888.247130,9030.512492
816.002000,153.219100,666.185348,8290.306550
816.002316,1072.533697,518.144159,8586.388927
816.002632,1532.190996,-0.000000,10214.842000
816.002948,1149.143247,814.226536,9252.574275
816.003263,0.000000,518.144159,9178.553681
816.003579,383.047749,222.061783,9030.512492
816.003895,612.876398,-0.000000,9326.594869
816.004210,459.657299,666.185348,9992.780217
816.004526,459.657299,1036.288319,10066.800811
816.004842,76.609550,740.205942,8512.368333
816.005158,-306.438199,888.247130,8216.285956
816.005473,689.485948,-148.041188,10584.944971
816.005789,612.876398,-148.041188,10214.842000
816.006105,383.047749,444.123565,9844.739029
816.006420,-766.095498,296.082377,8808.450710
816.006736,0.000000,-74.020594,9548.656652
816.007052,1149.143247,222.061783,10288.862594
816.007368,766.095498,888.247130,10140.821405
816.007683,229.828649,296.082377,9474.636058
816.007999,383.047749,222.061783,8512.368333
816.008315,1072.533697,-148.041188,9400.615463
816.008630,1608.800546,-814.226536,9844.739029
816.008946,1378.971896,-370.102971,10955.047942
816.009262,229.828649,-148.041188,9252.574275
816.009578,306.438199,-148.041188,8660.409521
816.009893,612.876398,-814.226536,10288.862594
816.010209,919.314598,-962.267725,11251.130318
816.010525,995.924147,-74.020594,9474.636058
816.010840,0.000000,-518.144159,8734.430116
816.011156,306.438199,-814.226536,9622.677246
816.011472,1532.190996,-962.267725,10288.862594
816.011788,995.924147,-518.144159,9326.594869
816.012103,536.266849,-592.164754,9178.553681
816.012419,-306.438199,-1406.391290,9474.636058
816.012735,153.219100,-1184.329507,8734.430116
816.013050,842.705048,-1258.350101,10807.006753
816.013366,306.438199,-1480.411884,10140.821405
816.013682,153.219100,-1036.288319,9548.656652
816.013998,-153.219100,-740.205942,7920.203579
816.014313,229.828649,-1110.308913,8586.388927
816.014629,919.314598,-1628.453072,10658.965565
816.014945,689.485948,-1036.288319,9622.677246
816.015260,0.000000,-518.144159,8808.450710
816.015576,-383.047749,-1036.288319,8068.244768
816.015892,689.485948,-1776.494261,9474.636058
816.016208,306.438199,-1110.308913,9696.697840
816.016523,689.485948,-222.061783,8660.409521
816.016839,229.828649,-740.205942,8808.450710
816.017155,0.000000,-666.185348,7920.203579
816.017470,1149.143247,-740.205942,8660.409521
816.017786,1302.362347,-0.000000,9252.574275
816.018102,766.095498,-592.164754,9326.594869
816.018418,-229.828649,-888.247130,7624.121203
816.018733,-153.219100,-1036.288319,8882.471304
816.019049,306.438199,-1110.308913,10214.842000
816.019365,229.828649,-592.164754,9770.718434
816.019680,0.000000,-74.020594,9252.574275
816.019996,0.000000,-222.061783,8290.306550
816.020312,0.000000,-148.041188,8956.491898
816.020628,919.314598,-666.185348,9696.697840
816.020943,689.485948,-0.000000,9918.759623
816.021259,0.000000,444.123565,9992.780217
816.021575,-459.657299,-148.041188,8142.265362
816.021890,229.828649,-0.000000,9474.636058
816.022206,919.314598,-148.041188,10214.842000
816.022522,842.705048,74.020594,9844.739029
816.022838,383.047749,-0.000000,9326.594869
816.023153,-153.219100,-296.082377,8586.388927
816.023469,1149.143247,-518.144159,10584.944971
816.023785,1302.362347,-0.000000,10362.883188
816.024100,153.219100,814.226536,9992.780217
816.024416,-229.828649,-0.000000,9696.697840
816.024732,383.047749,-222.061783,9622.677246
816.025048,1378.971896,-74.020594,10881.027347
816.025363,1072.533697,222.061783,10881.027347
816.025679,995.924147,666.185348,9326.594869
816.025995,306.438199,-74.020594,8808.450710
816.026310,1455.581446,888.247130,9622.677246
816.026626,1302.362347,666.185348,10214.842000
816.026942,995.924147,1628.453072,9326.594869
816.027258,76.609550,1554.432478,8956.491898
816.027573,-536.266849,666.185348,9622.677246
816.027889,229.828649,222.061783,9622.677246
816.028205,0.000000,-518.144159,10955.047942
816.028520,0.000000,-518.144159,11473.192101
816.028836,-766.095498,-666.185348,9696.697840
816.029152,-689.485948,-666.185348,9030.512492
816.029468,229.828649,-0.000000,9770.718434
816.029783,306.438199,74.020594,10881.027347
816.030099,76.609550,1110.308913,9696.697840
816.030415,-229.828649,740.205942,8216.285956
816.030730,76.609550,-222.061783,9252.574275
816.031046,1302.362347,-962.267725,10288.862594
816.031362,919.314598,-0.000000,9548.656652
816.031678,842.705048,-0.000000,9474.636058
816.031993,612.876398,444.123565,8142.265362
816.032309,612.876398,592.164754,8068.244768
816.032625,1302.362347,592.164754,9326.594869
816.032940,766.095498,-296.082377,9548.656652
816.033256,0.000000,148.041188,9474.636058
816.033572,-1072.533697,-592.164754,9104.533087
816.033888,0.000000,-1036.288319,9474.636058
816.034203,0.000000,-444.123565,10214.842000
816.034519,-153.219100,-148.041188,10658.965565
816.034835,153.219100,-0.000000,9326.594869
816.035150,-459.657299,296.082377,6439.791695
816.035466,306.438199,-296.082377,9252.574275
816.035782,383.047749,-444.123565,10066.800811
816.036098,153.219100,-222.061783,9622.677246
816.036413,76.609550,296.082377,8586.388927
816.036729,0.000000,-0.000000,7772.162391
816.037045,995.924147,-740.205942,9178.553681
816.037360,1149.143247,444.123565,9696.697840
816.037676,459.657299,740.205942,9030.512492
816.037992,459.657299,518.144159,7920.203579
816.038308,842.705048,-0.000000,7624.121203
816.038623,1685.410096,-74.020594,9474.636058
816.038939,1378.971896,-0.000000,10510.924376
816.039255,766.095498,222.061783,9030.512492
816.039570,0.000000,74.020594,9326.594869
816.039886,995.924147,370.102971,9770.718434
816.040202,1302.362347,814.226536,10436.903782
816.040518,1302.362347,1036.288319,10362.883188
816.040833,459.657299,370.102971,9400.615463
816.041149,536.266849,370.102971,10140.821405
816.041465,1532.190996,444.123565,9992.780217
816.041781,1378.971896,148.041188,10140.821405
816.042096,995.924147,444.123565,10584.944971
816.042412,536.266849,518.144159,9992.780217
816.042728,459.657299,814.226536,8734.430116
816.043043,1072.533697,-0.000000,10807.006753
816.043359,689.485948,-0.000000,11029.068536
816.043675,1072.533697,-0.000000,10584.944971
816.043991,153.219100,-518.144159,8882.471304
816.044306,689.485948,-1184.329507,9622.677246
816.044622,842.705048,-1332.370696,11251.130318
816.044938,1072.533697,-962.267725,10881.027347
816.045253,153.219100,-740.205942,10214.842000
816.045569,-459.657299,-1332.370696,9474.636058
816.045885,-229.828649,-1628.453072,9918.759623
816.046201,459.657299,-1406.391290,10807.006753
816.046516,153.219100,-962.267725,10140.821405
816.046832,-383.047749,-1406.391290,9474.636058
816.047148,-459.657299,-888.247130,7994.224174
816.047464,689.485948,-1036.288319,8660.409521
816.047779,1225.752797,-1184.329507,9696.697840
816.048095,229.828649,-592.164754,9474.636058
816.048411,306.438199,-1184.329507,8364.327145
816.048726,153.219100,-1258.350101,8734.430116
816.049042,689.485948,-1406.391290,9770.718434
816.049358,459.657299,-518.144159,9622.677246
816.049674,536.266849,-0.000000,8956.491898
816.049989,-459.657299,-592.164754,8808.450710
816.050305,76.609550,-592.164754,8660.409521
816.050621,1149.143247,-518.144159,8660.409521
816.050936,612.876398,-296.082377,9326.594869
816.051252,0.000000,-1184.329507,9622.677246
816.051568,-383.047749,-888.247130,8068.244768
816.051884,0.000000,-592.164754,9030.512492
816.052199,536.266849,-518.144159,9992.780217
816.052515,0.000000,222.061783,8882.471304
816.052831,-229.828649,-222.061783,9400.615463
816.053147,0.000000,-592.164754,8142.265362
816.053462,1378.971896,-1036.288319,9178.553681
816.053778,1608.800546,-444.123565,9474.636058
816.054094,995.924147,-370.102971,9548.656652
816.054409,459.657299,-962.267725,8734.430116
816.054725,689.485948,-444.123565,8660.409521
816.055041,995.924147,-1184.329507,9548.656652
816.055357,1072.533697,-592.164754,9770.718434
816.055672,766.095498,-222.061783,9992.780217
816.055988,-459.657299,-814.226536,8364.327145
816.056304,0.000000,-444.123565,9252.574275
816.056620,1072.533697,-814.226536,9918.759623
816.056935,306.438199,-0.000000,9622.677246
816.057251,-306.438199,-592.164754,9548.656652
816.057567,-842.705048,-1628.453072,9474.636058
816.057882,-459.657299,-1184.329507,9474.636058
816.058198,76.609550,-814.226536,10214.842000
816.058514,-153.219100,-370.102971,10807.006753
816.058830,-459.657299,-592.164754,10214.842000
816.059145,-842.705048,-0.000000,8290.306550
816.059461,0.000000,-0.000000,9104.533087
816.059777,1149.143247,-74.020594,10288.862594
816.060092,842.705048,888.247130,9178.553681
816.060408,229.828649,-296.082377,9918.759623
816.060724,0.000000,-296.082377,9104.533087
816.061040,1302.362347,518.144159,9844.739029
816.061355,919.314598,1184.329507,10362.883188
816.061671,995.924147,1480.411884,10214.842000
816.061987,306.438199,1776.494261,8956.491898
816.062303,536.266849,2220.617826,8068.244768
816.062618,1149.143247,2294.638420,9400.615463
816.062934,1302.362347,1850.514855,9918.759623
816.063250,1455.581446,1258.350101,10658.965565
816.063565,0.000000,1480.411884,9400.615463
816.063881,766.095498,1776.494261,8660.409521
816.064197,1149.143247,2072.576638,10362.883188
816.064513,612.876398,1924.535449,10140.821405
816.064828,229.828649,2146.597232,10436.903782
816.065144,0.000000,1702.473667,9474.636058
816.065460,383.047749,1776.494261,9400.615463
816.065775,1149.143247,814.226536,10732.986159
816.066091,1302.362347,1776.494261,9918.759623
816.066407,1072.533697,2220.617826,9548.656652
816.066723,766.095498,1628.453072,8364.327145
816.067038,1455.581446,1554.432478,9252.574275
816.067354,1685.410096,1184.329507,10140.821405
816.067670,1072.533697,1480.411884,9844.739029
816.067986,383.047749,740.205942,8956.491898
816.068301,842.705048,370.102971,8660.409521
816.068617,1991.848295,-0.000000,9844.739029
816.068933,842.705048,296.082377,10140.821405
816.069248,612.876398,-222.061783,9770.718434
816.069564,-153.219100,-444.123565,9326.594869
816.069880,0.000000,-666.185348,9844.739029
816.070196,842.705048,-888.247130,10140.821405
816.070511,306.438199,-0.000000,10066.800811
816.070827,76.609550,-1480.411884,10140.821405
816.071143,-306.438199,-1998.556043,9548.656652
816.071459,0.000000,-1332.370696,8956.491898
816.071774,229.828649,-888.247130,9696.697840
816.072090,153.219100,-518.144159,9622.677246
816.072406,76.609550,-1332.370696,9474.636058
816.072721,-766.095498,-1110.308913,8808.450710
816.073037,0.000000,-1776.494261,10214.842000
816.073353,0.000000,-2294.638420,10658.965565
816.073669,-766.095498,-1110.308913,10140.821405
816.073984,-1072.533697,-1924.535449,9548.656652
816.074300,-1149.143247,-2220.617826,8512.368333
816.074616,459.657299,-1924.535449,9696.697840
816.074931,-153.219100,-1406.391290,9992.780217
816.075247,0.000000,-1924.535449,10510.924376
816.075563,-842.705048,-2146.597232,8512.368333
816.075879,-383.047749,-2590.720797,8512.368333
816.076194,1072.533697,-2812.782580,10436.903782
816.076510,612.876398,-1776.494261,9178.553681
816.076826,306.438199,-1332.370696,8956.491898
816.077142,229.828649,-2146.597232,7994.224174
816.077457,1302.362347,-1850.514855,8734.430116
816.077773,1762.019645,-1776.494261,8586.388927
816.078089,1072.533697,-1036.288319,8586.388927
816.078404,842.705048,-1998.556043,8956.491898
816.078720,0.000000,-1998.556043,7920.203579
816.079036,612.876398,-1628.453072,9326.594869
816.079352,306.438199,-2072.576638,10140.821405
816.079667,76.609550,-740.205942,9178.553681
816.079983,-459.657299,-962.267725,8216.285956
816.080299,-612.876398,-1406.391290,8364.327145
816.080614,1149.143247,-1776.494261,9474.636058
816.080930,919.314598,-1332.370696,9548.656652
816.081246,383.047749,-814.226536,9474.636058
816.081562,-536.266849,-1184.329507,9178.553681
816.081877,-612.876398,-518.144159,8586.388927
816.082193,842.705048,-148.041188,9474.636058
816.082509,229.828649,-592.164754,9696.697840
816.082825,-229.828649,-444.123565,10066.800811
816.083140,-766.095498,-962.267725,9548.656652
816.083456,229.828649,-666.185348,9104.533087
816.083772,383.047749,-666.185348,9918.759623
816.084087,766.095498,148.041188,9992.780217
816.084403,383.047749,740.205942,9622.677246
816.084719,153.219100,592.164754,8660.409521
816.085035,536.266849,222.061783,10066.800811
816.085350,919.314598,518.144159,10732.986159
816.085666,995.924147,370.102971,10066.800811
816.085982,383.047749,444.123565,9474.636058
816.086297,536.266849,370.102971,9030.512492
816.086613,1455.581446,518.144159,9474.636058
816.086929,1378.971896,1406.391290,10288.862594
816.087245,689.485948,962.267725,9326.594869
816.087560,76.609550,222.061783,9548.656652
816.087876,0.000000,-0.000000,9326.594869
816.088192,76.609550,444.123565,10658.965565
816.088508,229.828649,1036.288319,10658.965565
816.088823,229.828649,222.061783,10807.006753
816.089139,0.000000,740.205942,9474.636058
816.089455,-383.047749,888.247130,8882.471304
816.089770,1302.362347,1036.288319,9252.574275
816.090086,612.876398,1258.350101,9696.697840
816.090402,766.095498,1554.432478,9844.739029
816.090718,383.047749,814.226536,8956.491898
816.091033,842.705048,592.164754,9326.594869
816.091349,919.314598,1110.308913,9992.780217
816.091665,1072.533697,1480.411884,9622.677246
816.091981,459.657299,2368.659014,8956.491898
816.092296,153.219100,1924.535449,8808.450710
816.092612,1149.143247,2294.638420,9252.574275
816.092928,1532.190996,2146.597232,9030.512492
816.093243,612.876398,1998.556043,9474.636058
816.093559,0.000000,1110.308913,9918.759623
816.093875,0.000000,888.247130,8586.388927
816.094191,689.485948,740.205942,10288.862594
816.094506,76.609550,1628.453072,9844.739029
816.094822,0.000000,1332.370696,10658.965565
816.095138,0.000000,1554.432478,8956.491898
816.095453,-306.438199,2072.576638,8512.368333
816.095769,995.924147,1702.473667,9548.656652
816.096085,1149.143247,1406.391290,9400.615463
816.096401,76.609550,666.185348,9104.533087
816.096716,-153.219100,-0.000000,9918.759623
816.097032,766.095498,-370.102971,9400.615463
816.097348,995.924147,-0.000000,9178.553681
816.097664,229.828649,962.267725,9696.697840
816.097979,229.828649,-444.123565,10584.944971
816.098295,-612.876398,-518.144159,9252.574275
816.098611,689.485948,-0.000000,9548.656652
816.098926,1072.533697,-888.247130,10140.821405
816.099242,1072.533697,-444.123565,9696.697840
816.099558,153.219100,-1258.350101,9252.574275
816.099874,1072.533697,-2146.597232,9104.533087
816.100189,1608.800546,-1258.350101,10362.883188
816.100505,1072.533697,-814.226536,9622.677246
816.100821,1378.971896,-0.000000,9178.553681
816.101136,842.705048,-1628.453072,8734.430116
816.101452,689.485948,-1406.391290,9548.656652
816.101768,1455.581446,-1480.411884,9474.636058
816.102084,1378.971896,-1480.411884,9474.636058
816.102399,919.314598,-888.247130,10288.862594
816.102715,0.000000,-1850.514855,9400.615463
816.103031,766.095498,-1480.411884,9696.697840
816.103347,383.047749,-2368.659014,10510.924376
816.103662,-229.828649,-1406.391290,10732.986159
816.103978,153.219100,-1406.391290,9474.636058
816.104294,-459.657299,-2368.659014,8364.327145
816.104609,0.000000,-2664.741391,9844.739029
816.104925,229.828649,-2960.823768,10732.986159
816.105241,76.609550,-1258.350101,9326.594869
816.105557,-229.828649,-1702.473667,8882.471304
816.105872,-536.266849,-2146.597232,8364.327145
816.106188,536.266849,-2590.720797,9400.615463
816.106504,153.219100,-2886.803174,9696.697840
816.106820,-153.219100,-2294.638420,9844.739029
816.107135,-153.219100,-2738.761985,8660.409521
816.107451,0.000000,-1998.556043,7994.224174
816.107767,842.705048,-1776.494261,9030.512492
816.108082,689.485948,-962.267725,8586.388927
816.108398,0.000000,-1406.391290,8734.430116
816.108714,383.047749,-1554.432478,7772.162391
816.109030,153.219100,-1702.473667,8142.265362
816.109345,689.485948,-1776.494261,9400.615463
816.109661,0.000000,-888.247130,9770.718434
816.109977,-229.828649,-1110.308913,9326.594869
816.110292,-842.705048,-666.185348,7920.203579
816.110608,153.219100,-740.205942,8882.471304
816.110924,306.438199,148.041188,9400.615463
816.111240,0.000000,370.102971,9770.718434
816.111555,-689.485948,-666.185348,9474.636058
816.111871,-689.485948,-444.123565,8586.388927
816.112187,229.828649,-370.102971,10362.883188
816.112503,153.219100,740.205942,10214.842000
816.112818,76.609550,1776.494261,9918.759623
816.113134,0.000000,1332.370696,8882.471304
816.113450,383.047749,1258.350101,9178.553681
816.113765,1455.581446,1184.329507,9474.636058
816.114081,1378.971896,1406.391290,9326.594869
816.114397,1072.533697,1258.350101,9696.697840
816.114713,842.705048,296.082377,9474.636058
816.115028,1072.533697,888.247130,9622.677246
816.115344,1838.629195,1332.370696,10288.862594
816.115660,919.314598,2368.659014,10214.842000
816.115975,459.657299,1480.411884,9918.759623
816.116291,76.609550,1110.308913,8734.430116
816.116607,1302.362347,888.247130,9992.780217
816.116923,1149.143247,444.123565,10584.944971
816.117238,766.095498,962.267725,10140.821405
816.117554,76.609550,592.164754,10140.821405
816.117870,-536.266849,-0.000000,10362.883188
816.118186,766.095498,-0.000000,10362.883188
816.118501,689.485948,962.267725,10140.821405
816.118817,536.266849,1628.453072,10658.965565
816.119133,76.609550,370.102971,9548.656652
816.119448,612.876398,-0.000000,9326.594869
816.119764,1302.362347,518.144159,9696.697840
816.120080,1532.190996,1110.308913,9844.739029
816.120396,1225.752797,1480.411884,9178.553681
816.120711,612.876398,740.205942,8512.368333
816.121027,459.657299,740.205942,9178.553681
816.121343,1302.362347,-0.000000,10658.965565
816.121658,459.657299,1110.308913,9696.697840
816.121974,229.828649,444.123565,9474.636058
816.122290,-153.219100,-370.102971,9326.594869
816.122606,766.095498,-370.102971,10881.027347
816.122921,1225.752797,888.247130,9770.718434
816.123237,1225.752797,2812.782580,8290.306550
816.123553,0.000000,1850.514855,8438.347739
816.123869,-153.219100,814.226536,8586.388927
816.124184,919.314598,-296.082377,9326.594869
816.124500,536.266849,-0.000000,10066.800811
816.124816,153.219100,666.185348,10214.842000
816.125131,0.000000,-0.000000,9030.512492
816.125447,76.609550,814.226536,8512.368333
816.125763,229.828649,370.102971,9992.780217
816.126079,612.876398,666.185348,9474.636058
816.126394,612.876398,1184.329507,9178.553681
816.126710,-689.485948,-222.061783,9178.553681
816.127026,306.438199,-518.144159,9622.677246
816.127342,1072.533697,-888.247130,10140.821405
816.127657,229.828649,296.082377,8956.491898
816.127973,383.047749,-0.000000,9474.636058
816.128289,0.000000,-148.041188,8364.327145
816.128604,612.876398,-0.000000,8216.285956
816.128920,766.095498,-888.247130,9326.594869
816.129236,766.095498,-814.226536,9178.553681
816.129552,689.485948,-1554.432478,9104.533087
816.129867,-153.219100,-1776.494261,8956.491898
816.130183,153.219100,-2442.679609,10584.944971
816.130499,153.219100,-2294.638420,10362.883188
816.130814,0.000000,-1332.370696,9918.759623
816.131130,-306.438199,-888.247130,8512.368333
816.131446,-153.219100,-962.267725,8808.450710
816.131762,612.876398,-1628.453072,9178.553681
816.132077,995.924147,-2220.617826,10584.944971
816.132393,306.438199,-1480.411884,9252.574275
816.132709,0.000000,-1776.494261,8512.368333
816.133025,0.000000,-2368.659014,9548.656652
816.133340,766.095498,-2220.617826,10140.821405
816.133656,153.219100,-1184.329507,10510.924376
816.133972,153.219100,-1110.308913,9696.697840
816.134287,-1225.752797,-1332.370696,8660.409521
816.134603,383.047749,-2368.659014,9474.636058
816.134919,536.266849,-2886.803174,10362.883188
816.135235,0.000000,-1850.514855,10140.821405
816.135550,-306.438199,-2072.576638,10214.842000
816.135866,-306.438199,-888.247130,8438.347739
816.136182,0.000000,-1036.288319,9178.553681
816.136497,383.047749,-666.185348,10140.821405
816.136813,766.095498,-444.123565,9770.718434
816.137129,0.000000,-1258.350101,8956.491898
816.137445,612.876398,-1036.288319,8142.265362
816.137760,1991.848295,-1332.370696,9178.553681
816.138076,2221.676944,-592.164754,8956.491898
816.138392,1302.362347,518.144159,8586.388927
816.138708,612.876398,-370.102971,8734.430116
816.139023,766.095498,740.205942,7920.203579
816.139339,1225.752797,296.082377,8956.491898
816.139655,536.266849,-0.000000,10214.842000
816.139970,612.876398,-296.082377,9770.718434
816.140286,-383.047749,-370.102971,8438.347739
816.140602,0.000000,370.102971,9178.553681
816.140918,766.095498,666.185348,10066.800811
816.141233,1149.143247,814.226536,9474.636058
816.141549,153.219100,1332.370696,8956.491898
816.141865,-536.266849,444.123565,8586.388927
816.142181,0.000000,-0.000000,9548.656652
816.142496,689.485948,-222.061783,10288.862594
816.142812,383.047749,-0.000000,10658.965565
816.143128,306.438199,370.102971,10140.821405
816.143443,0.000000,1332.370696,8586.388927
816.143759,1225.752797,1184.329507,9104.533087
816.144075,919.314598,740.205942,9770.718434
816.144391,689.485948,1924.535449,10288.862594
816.144706,229.828649,962.267725,9326.594869
816.145022,153.219100,592.164754,8808.450710
816.145338,1378.971896,-0.000000,10658.965565
816.145653,995.924147,1110.308913,9918.759623
816.145969,153.219100,1480.411884,9770.718434
816.146285,0.000000,888.247130,9030.512492
816.146601,689.485948,1110.308913,8808.450710
816.146916,1072.533697,740.205942,9844.739029
816.147232,842.705048,296.082377,10362.883188
816.147548,1072.533697,-0.000000,10362.883188
816.147863,-383.047749,-222.061783,9770.718434
816.148179,306.438199,148.041188,10214.842000
816.148495,536.266849,148.041188,10436.903782
816.148811,459.657299,1776.494261,10658.965565
816.149126,-459.657299,1406.391290,9400.615463
816.149442,-842.705048,-148.041188,9178.553681
816.149758,306.438199,-518.144159,10214.842000
816.150074,689.485948,-888.247130,10658.965565
816.150389,153.219100,-148.041188,10066.800811
816.150705,-689.485948,-666.185348,9992.780217
816.151021,-153.219100,-296.082377,9474.636058
816.151336,1072.533697,-0.000000,9474.636058
816.151652,1072.533697,814.226536,9178.553681
816.151968,612.876398,814.226536,8956.491898
816.152284,689.485948,-148.041188,8734.430116
816.152599,1378.971896,-666.185348,7994.224174
816.152915,1608.800546,-592.164754,8882.471304
816.153231,1378.971896,-592.164754,9844.739029
816.153546,995.924147,-888.247130,9030.512492
816.153862,76.609550,-0.000000,7550.100608
816.154178,229.828649,-0.000000,8586.388927
816.154494,995.924147,-370.102971,10214.842000
816.154809,536.266849,-0.000000,9622.677246
816.155125,76.609550,-0.000000,9104.533087
816.155441,-766.095498,-814.226536,7698.141797
816.155757,612.876398,-666.185348,9400.615463
816.156072,919.314598,-370.102971,9474.636058
816.156388,229.828649,-0.000000,9474.636058
816.156704,-383.047749,-888.247130,9030.512492
816.157019,-536.266849,-518.144159,8364.327145
816.157335,612.876398,-1184.329507,9918.759623
816.157651,459.657299,-148.041188,10510.924376
816.157967,689.485948,740.205942,10584.944971
816.158282,0.000000,296.082377,8882.471304
816.158598,153.219100,222.061783,8290.306550
816.158914,1225.752797,-444.123565,9992.780217
816.159229,1532.190996,222.061783,9104.533087
816.159545,1225.752797,148.041188,9400.615463
816.159861,459.657299,-592.164754,8660.409521
816.160177,919.314598,-740.205942,9252.574275
816.160492,1225.752797,-888.247130,10807.006753
816.160808,919.314598,-592.164754,9992.780217
816.161124,-383.047749,-740.205942,9844.739029
816.161440,-306.438199,-814.226536,9622.677246
816.161755,612.876398,-518.144159,8956.491898
816.162071,1072.533697,-148.041188,9622.677246
816.162387,-306.438199,-1036.288319,11103.089130
816.162702,-306.438199,-1554.432478,10066.800811
816.163018,-842.705048,-1110.308913,8956.491898
816.163334,0.000000,-1776.494261,10362.883188
816.163650,0.000000,-1480.411884,11399.171507
816.163965,229.828649,-740.205942,10584.944971
816.164281,-612.876398,-1110.308913,8734.430116
816.164597,-306.438199,-1110.308913,9252.574275
816.164912,919.314598,-888.247130,10510.924376
816.165228,842.705048,-592.164754,8956.491898
816.165544,76.609550,-592.164754,9178.553681
816.165860,-383.047749,-1406.391290,9918.759623
816.166175,229.828649,-1776.494261,8734.430116
816.166491,689.485948,-962.267725,10288.862594
816.166807,229.828649,-148.041188,9992.780217
816.167122,689.485948,-888.247130,9030.512492
816.167438,0.000000,-592.164754,7846.182985
816.167754,229.828649,-962.267725,9474.636058
816.168070,1302.362347,-666.185348,9622.677246
816.168385,1225.752797,296.082377,9030.512492
816.168701,306.438199,370.102971,7846.182985
816.169017,76.609550,-888.247130,8882.471304
816.169333,1149.143247,-1184.329507,9474.636058
816.169648,153.219100,-74.020594,9696.697840
816.169964,306.438199,222.061783,9770.718434
816.170280,-153.219100,-962.267725,8882.471304
816.170595,-459.657299,-148.041188,7920.203579
816.170911,383.047749,222.061783,10140.821405
816.171227,842.705048,444.123565,9992.780217
816.171543,536.266849,592.164754,8956.491898
816.171858,-459.657299,296.082377,8438.347739
816.172174,536.266849,-0.000000,8956.491898
816.172490,1455.581446,-518.144159,9918.759623
816.172805,689.485948,740.205942,9770.718434
816.173121,1225.752797,444.123565,10436.903782
816.173437,612.876398,-0.000000,8808.450710
816.173753,1149.143247,814.226536,8956.491898
816.174068,1608.800546,1184.329507,9696.697840
816.174384,1838.629195,1332.370696,9104.533087
816.174700,612.876398,1036.288319,8808.450710
816.175016,153.219100,370.102971,8882.471304
816.175331,1149.143247,148.041188,10214.842000
816.175647,1149.143247,-148.041188,10510.924376
816.175963,0.000000,518.144159,9992.780217
816.176278,536.266849,-148.041188,10066.800811
816.176594,306.438199,-74.020594,8660.409521
816.176910,1072.533697,-148.041188,9548.656652
816.177226,306.438199,518.144159,10066.800811
816.177541,229.828649,-296.082377,10510.924376
816.177857,-612.876398,-666.185348,9474.636058
816.178173,-612.876398,296.082377,9844.739029
816.178488,612.876398,-222.061783,11029.068536
816.178804,76.609550,222.061783,10288.862594
816.179120,-153.219100,814.226536,9696.697840
816.179436,-383.047749,296.082377,8512.368333
816.179751,689.485948,-0.000000,9548.656652
816.180067,536.266849,-0.000000,10066.800811
816.180383,153.219100,370.102971,9992.780217
816.180699,459.657299,-296.082377,9844.739029
816.181014,-612.876398,-74.020594,8734.430116
816.181330,153.219100,148.041188,10140.821405
816.181646,383.047749,-0.000000,10658.965565
816.181961,-536.266849,222.061783,9770.718434
816.182277,0.000000,444.123565,9474.636058
816.182593,-153.219100,-444.123565,9030.512492
816.182909,459.657299,-370.102971,8956.491898
816.183224,612.876398,-0.000000,10807.006753
816.183540,306.438199,-74.020594,9622.677246
816.183856,0.000000,222.061783,8956.491898
816.184171,-306.438199,370.102971,9252.574275
816.184487,612.876398,-0.000000,9622.677246
816.184803,919.314598,814.226536,9622.677246
816.185119,383.047749,-0.000000,8882.471304
816.185434,612.876398,-1110.308913,8586.388927
816.185750,1072.533697,-740.205942,9400.615463
816.186066,1685.410096,-518.144159,9770.718434
816.186382,919.314598,222.061783,8808.450710
816.186697,536.266849,148.041188,9844.739029
816.187013,0.000000,-0.000000,8142.265362
816.187329,306.438199,-222.061783,9252.574275
816.187644,919.314598,-814.226536,10732.986159
816.187960,383.047749,-296.082377,9474.636058
816.188276,76.609550,-444.123565,9178.553681
816.188592,612.876398,-518.144159,7920.203579
816.188907,1225.752797,-814.226536,9252.574275
816.189223,1378.971896,-740.205942,9474.636058
816.189539,612.876398,-222.061783,9030.512492
816.189854,459.657299,-1332.370696,9326.594869
816.190170,0.000000,-1406.391290,9030.512492
816.190486,689.485948,-1184.329507,10436.903782
816.190802,536.266849,-370.102971,9918.759623
816.191117,536.266849,-148.041188,9326.594869
816.191433,229.828649,-666.185348,8956.491898
816.191749,459.657299,-370.102971,9474.636058
816.192064,1225.752797,-74.020594,9326.594869
816.192380,1225.752797,296.082377,8956.491898
816.192696,766.095498,444.123565,9474.636058
816.193012,0.000000,-444.123565,8734.430116
816.193327,383.047749,-1184.329507,9992.780217
816.193643,842.705048,-962.267725,10955.047942
816.193959,383.047749,-296.082377,10362.883188
816.194275,0.000000,-0.000000,9400.615463
816.194590,-153.219100,-74.020594,8882.471304
816.194906,766.095498,-370.102971,9474.636058
816.195222,1072.533697,222.061783,9770.718434
816.195537,689.485948,-296.082377,9770.718434
816.195853,-689.485948,-888.247130,9474.636058
816.196169,-459.657299,-1258.350101,9622.677246
816.196485,689.485948,-1406.391290,10288.862594
816.196800,306.438199,-148.041188,9770.718434
816.197116,-306.438199,-296.082377,10362.883188
816.197432,-536.266849,-740.205942,9326.594869
816.197747,459.657299,-296.082377,8734.430116
816.198063,995.924147,-962.267725,9474.636058
816.198379,842.705048,-296.082377,9770.718434
816.198695,383.047749,-592.164754,9104.533087
816.199010,0.000000,-1332.370696,9104.533087
816.199326,76.609550,-1036.288319,9548.656652
816.199642,995.924147,-370.102971,9844.739029
816.199958,383.047749,444.123565,8808.450710
816.200273,-153.219100,-444.123565,8808.450710
816.200589,0.000000,-666.185348,9326.594869
816.200905,306.438199,-518.144159,9474.636058
816.201220,612.876398,-370.102971,9770.718434
816.201536,0.000000,370.102971,9622.677246
816.201852,-689.485948,-1110.308913,9474.636058
816.202168,-536.266849,-1332.370696,9548.656652
816.202483,76.609550,-814.226536,10658.965565
816.202799,0.000000,-0.000000,10066.800811
816.203115,0.000000,962.267725,9770.718434
816.203430,-306.438199,148.041188,8808.450710
816.203746,612.876398,-0.000000,9030.512492
816.204062,1762.019645,-0.000000,9844.739029
816.204378,1532.190996,1184.329507,8660.409521
816.204693,1838.629195,666.185348,9474.636058
816.205009,1225.752797,222.061783,8512.368333
816.205325,1838.629195,296.082377,9104.533087
816.205641,2451.505594,518.144159,9696.697840
816.205956,1532.190996,1554.432478,9474.636058
816.206272,995.924147,1184.329507,9474.636058
816.206588,995.924147,666.185348,7624.121203
816.206903,1762.019645,222.061783,9622.677246
816.207219,1838.629195,-0.000000,10436.903782
816.207535,766.095498,296.082377,9548.656652
816.207851,-306.438199,-222.061783,9770.718434
816.208166,0.000000,222.061783,9178.553681
816.208482,919.314598,-370.102971,10140.821405
816.208798,229.828649,370.102971,9918.759623
816.209113,-153.219100,666.185348,10584.944971
816.209429,-153.219100,-444.123565,9770.718434
816.209745,383.047749,-0.000000,8512.368333
816.210061,842.705048,-444.123565,9696.697840
816.210376,612.876398,-0.000000,10510.924376
816.210692,766.095498,-74.020594,10214.842000
816.211008,76.609550,-444.123565,8586.388927
816.211324,612.876398,370.102971,9474.636058
816.211639,1608.800546,-444.123565,9770.718434
816.211955,1072.533697,1036.288319,9252.574275
816.212271,459.657299,444.123565,10140.821405
816.212586,0.000000,-666.185348,8512.368333
816.212902,995.924147,-0.000000,9252.574275
816.213218,536.266849,370.102971,8660.409521
816.213534,76.609550,370.102971,9548.656652
816.213849,0.000000,-518.144159,9548.656652
816.214165,-995.924147,-740.205942,8808.450710
816.214481,153.219100,-592.164754,10807.006753
816.214796,-229.828649,-222.061783,10362.883188
816.215112,-459.657299,370.102971,9770.718434
816.215428,-919.314598,-222.061783,9252.574275
816.215744,-459.657299,-962.267725,9770.718434
816.216059,612.876398,-296.082377,9770.718434
816.216375,76.609550,-0.000000,9474.636058
816.216691,536.266849,-296.082377,9918.759623
816.217006,229.828649,-814.226536,9474.636058
816.217322,919.314598,-0.000000,8660.409521
816.217638,995.924147,-0.000000,9474.636058
816.217954,1225.752797,962.267725,9770.718434
816.218269,1072.533697,740.205942,9548.656652
816.218585,0.000000,222.061783,8364.327145
816.218901,1378.971896,-296.082377,9326.594869
816.219217,1455.581446,-296.082377,9548.656652
816.219532,919.314598,296.082377,9844.739029
816.219848,383.047749,-888.247130,10214.842000
816.220164,-153.219100,-370.102971,9030.512492
816.220479,536.266849,-74.020594,9548.656652
816.220795,0.000000,148.041188,10140.821405
816.221111,0.000000,-0.000000,10881.027347
816.221427,-383.047749,-222.061783,8734.430116
816.221742,-459.657299,-148.041188,8364.327145
816.222058,842.705048,-1258.350101,10732.986159
816.222374,612.876398,-666.185348,9400.615463
816.222689,153.219100,-222.061783,9104.533087
816.223005,-536.266849,-1036.288319,9104.533087
816.223321,306.438199,-1850.514855,9104.533087
816.223637,383.047749,-888.247130,10066.800811
816.223952,76.609550,-444.123565,9770.718434
816.224268,0.000000,-444.123565,9474.636058
816.224584,-383.047749,-1184.329507,9104.533087
816.224900,459.657299,-740.205942,8882.471304
816.225215,1532.190996,-1258.350101,10066.800811
816.225531,842.705048,-74.020594,9326.594869
816.225847,0.000000,-518.144159,8512.368333
816.226162,-306.438199,-1036.288319,8364.327145
816.226478,1762.019645,-1332.370696,10362.883188
816.226794,919.314598,-370.102971,9104.533087
816.227110,229.828649,-370.102971,9474.636058
816.227425,-153.219100,-1258.350101,9770.718434
816.227741,229.828649,-666.185348,8290.306550
816.228057,1225.752797,-666.185348,9622.677246
816.228372,1302.362347,74.020594,9400.615463
816.228688,766.095498,296.082377,9178.553681
816.229004,-153.219100,-222.061783,9178.553681
816.229320,383.047749,148.041188,9252.574275
816.229635,1072.533697,-592.164754,9918.759623
816.229951,383.047749,444.123565,10584.944971
816.230267,689.485948,740.205942,9918.759623
816.230583,459.657299,-0.000000,8512.368333
816.230898,612.876398,-0.000000,9770.718434
816.231214,1608.800546,-0.000000,9918.759623
816.231530,1149.143247,1554.432478,9326.594869
816.231845,766.095498,814.226536,8882.471304
816.232161,-383.047749,-74.020594,8808.450710
816.232477,766.095498,-296.082377,10584.944971
816.232793,536.266849,-370.102971,10584.944971
816.233108,0.000000,370.102971,10214.842000
816.233424,-459.657299,-0.000000,9918.759623
816.233740,0.000000,-222.061783,8956.491898
816.234055,689.485948,-0.000000,9992.780217
816.234371,1149.143247,-370.102971,10732.986159
816.234687,459.657299,-370.102971,10214.842000
816.235003,-383.047749,-592.164754,9696.697840
816.235318,0.000000,-370.102971,8586.388927
816.235634,306.438199,-0.000000,10140.821405
816.235950,919.314598,740.205942,10214.842000
816.236266,995.924147,1036.288319,9030.512492
816.236581,306.438199,740.205942,7920.203579
816.236897,1302.362347,-370.102971,8956.491898
816.237213,1302.362347,-296.082377,9548.656652
816.237528,1149.143247,296.082377,9844.739029
816.237844,459.657299,-370.102971,9622.677246
816.238160,-612.876398,-740.205942,9326.594869
816.238476,153.219100,-370.102971,10955.047942
816.238791,229.828649,-222.061783,10066.800811
816.239107,-383.047749,666.185348,9770.718434
816.239423,-766.095498,-814.226536,9770.718434
816.239738,-842.705048,-666.185348,9030.512492
816.240054,1072.533697,-888.247130,9918.759623
816.240370,383.047749,-296.082377,9696.697840
816.240686,76.609550,296.082377,9918.759623
816.241001,0.000000,-740.205942,9178.553681
816.241317,-383.047749,-222.061783,8068.244768
816.241633,995.924147,-74.020594,9992.780217
816.241948,612.876398,296.082377,9548.656652
816.242264,1149.143247,740.205942,9474.636058
816.242580,536.266849,-296.082377,7772.162391
816.242895,1302.362347,-370.102971,8882.471304
816.243211,2221.676944,-0.000000,9548.656652
816.243527,1072.533697,740.205942,8364.327145
816.243842,536.266849,592.164754,9030.512492
816.244158,0.000000,-370.102971,9178.553681
816.244474,229.828649,-370.102971,9104.533087
816.244789,612.876398,-148.041188,9696.697840
816.245105,0.000000,-148.041188,9770.718434
816.245421,76.609550,-592.164754,9770.718434
816.245736,-536.266849,-666.185348,8438.347739
816.246052,612.876398,-296.082377,10066.800811
816.246367,919.314598,-0.000000,9474.636058
816.246683,153.219100,592.164754,8956.491898
816.246999,-612.876398,-444.123565,9326.594869
816.247314,76.609550,-1332.370696,9992.780217
816.247630,995.924147,-1332.370696,9696.697840
816.247946,842.705048,296.082377,9992.780217
816.248261,689.485948,-0.000000,9696.697840
816.248577,383.047749,-1258.350101,9474.636058
816.248893,536.266849,-518.144159,9696.697840
816.249208,1915.238745,-370.102971,9104.533087
816.249524,1608.800546,1184.329507,9622.677246
816.249839,1225.752797,296.082377,9400.615463
816.250155,459.657299,-0.000000,8512.368333
816.250471,1685.410096,-1036.288319,9770.718434
816.250786,1072.533697,-814.226536,10510.924376
816.251102,612.876398,296.082377,10362.883188
816.251418,153.219100,-0.000000,9474.636058
816.251733,-306.438199,-444.123565,9030.512492
816.252049,229.828649,-740.205942,10362.883188
816.252365,459.657299,-296.082377,10288.862594
816.252680,0.000000,740.205942,9474.636058
816.252996,-995.924147,-518.144159,9992.780217
816.253311,-612.876398,-1036.288319,9844.739029
816.253627,0.000000,-1036.288319,10658.965565
816.253943,-153.219100,518.144159,9918.759623
816.254258,-536.266849,370.102971,9918.759623
816.254574,-919.314598,-444.123565,9252.574275
816.254890,0.000000,-592.164754,9104.533087
816.255205,459.657299,-740.205942,9992.780217
816.255521,383.047749,296.082377,9696.697840
816.255837,76.609550,-74.020594,9326.594869
816.256152,-536.266849,-370.102971,8512.368333
816.256468,459.657299,-740.205942,10140.821405
816.256783,383.047749,-740.205942,9622.677246
816.257099,-306.438199,370.102971,9326.594869
816.257415,0.000000,-0.000000,8660.409521
816.257730,-459.657299,-814.226536,8290.306550
816.258046,383.047749,-1036.288319,9326.594869
816.258362,995.924147,-666.185348,9030.512492
816.258677,383.047749,-148.041188,9326.594869
816.258993,-229.828649,-888.247130,8956.491898
816.259309,0.000000,-814.226536,8512.368333
816.259624,842.705048,-814.226536,9178.553681
816.259940,766.095498,-370.102971,9400.615463
816.260255,612.876398,-370.102971,9918.759623
816.260571,0.000000,-1110.308913,8734.430116
816.260887,306.438199,-444.123565,9104.533087
816.261202,1072.533697,-296.082377,9474.636058
816.261518,1072.533697,740.205942,8364.327145
816.261834,306.438199,296.082377,9178.553681
816.262149,0.000000,-0.000000,8808.450710
816.262465,689.485948,-222.061783,9326.594869
816.262781,766.095498,-74.020594,9696.697840
816.263096,612.876398,296.082377,9548.656652
816.263412,689.485948,-370.102971,9474.636058
816.263727,0.000000,-518.144159,9400.615463
816.264043,842.705048,-666.185348,9844.739029
816.264359,1378.971896,-0.000000,9918.759623
816.264674,1072.533697,1036.288319,9400.615463
816.264990,383.047749,666.185348,8808.450710
816.265306,766.095498,-222.061783,9252.574275
816.265621,1532.190996,-518.144159,10288.862594
816.265937,1225.752797,814.226536,9326.594869
816.266253,1378.971896,518.144159,10140.821405
816.266568,612.876398,-0.000000,9548.656652
816.266884,919.314598,222.061783,8956.491898
816.267199,1378.971896,-0.000000,9622.677246
816.267515,919.314598,814.226536,9696.697840
816.267831,919.314598,222.061783,9992.780217
816.268146,0.000000,-74.020594,8882.471304
816.268462,306.438199,-518.144159,10436.903782
816.268778,1149.143247,-888.247130,10881.027347
816.269093,919.314598,296.082377,9992.780217
816.269409,689.485948,-0.000000,10362.883188
816.269725,-153.219100,222.061783,8882.471304
816.270040,1149.143247,-0.000000,9548.656652
816.270356,1149.143247,592.164754,8956.491898
816.270671,919.314598,444.123565,9474.636058
816.270987,229.828649,-1554.432478,10362.883188
816.271303,-229.828649,-1110.308913,9400.615463
816.271618,536.266849,-814.226536,9844.739029
816.271934,459.657299,-74.020594,9770.718434
816.272250,0.000000,1184.329507,10510.924376
816.272565,-383.047749,-518.144159,9400.615463
816.272881,0.000000,-814.226536,9104.533087
816.273197,383.047749,-666.185348,9474.636058
816.273512,153.219100,-444.123565,9326.594869
816.273828,306.438199,-740.205942,10066.800811
816.274143,-842.705048,-1258.350101,9178.553681
816.274459,76.609550,-1036.288319,9326.594869
816.274775,689.485948,-444.123565,9474.636058
816.275090,229.828649,1184.329507,9030.512492
816.275406,0.000000,296.082377,9104.533087
816.275722,-383.047749,-444.123565,8882.471304
816.276037,612.876398,-444.123565,8882.471304
816.276353,842.705048,-592.164754,9104.533087
816.276669,536.266849,-0.000000,9400.615463
816.276984,-1225.752797,-592.164754,10066.800811
816.277300,-766.095498,-1258.350101,9252.574275
816.277615,229.828649,-1110.308913,9844.739029
816.277931,-306.438199,222.061783,9844.739029
816.278247,0.000000,296.082377,9918.759623
816.278562,-1149.143247,-814.226536,9400.615463
816.278878,-153.219100,-888.247130,9548.656652
816.279194,995.924147,-518.144159,9770.718434
816.279509,1455.581446,-148.041188,8808.450710
816.279825,1149.143247,370.102971,9030.512492
816.280141,766.095498,-518.144159,8586.388927
816.280456,1378.971896,-518.144159,8586.388927
816.280772,2298.286494,-148.041188,9030.512492
816.281087,1915.238745,814.226536,9326.594869
816.281403,1455.581446,148.041188,9104.533087
816.281719,459.657299,-592.164754,8438.347739
816.282034,1378.971896,-592.164754,9622.677246
816.282350,1762.019645,-222.061783,9548.656652
816.282666,1225.752797,1036.288319,9474.636058
816.282981,229.828649,444.123565,8364.327145
816.283297,0.000000,-666.185348,9104.533087
816.283613,536.266849,-962.267725,10140.821405
816.283928,612.876398,-666.185348,10436.903782
816.284244,0.000000,-0.000000,9696.697840
816.284559,-383.047749,-666.185348,9178.553681
816.284875,-536.266849,-296.082377,9178.553681
816.285191,1149.143247,-74.020594,10066.800811
816.285506,383.047749,444.123565,9104.533087
816.285822,536.266849,148.041188,9844.739029
816.286138,-383.047749,-1184.329507,9104.533087
816.286453,0.000000,-666.185348,9548.656652
816.286769,1072.533697,-740.205942,10288.862594
816.287084,459.657299,592.164754,9104.533087
816.287400,229.828649,962.267725,9474.636058
816.287716,-153.219100,444.123565,9030.512492
816.288031,612.876398,-74.020594,9104.533087
816.288347,1225.752797,-74.020594,9696.697840
816.288663,1072.533697,1110.308913,9326.594869
816.288978,306.438199,-0.000000,9770.718434
816.289294,-306.438199,-666.185348,9178.553681
816.289610,919.314598,-296.082377,9696.697840
816.289925,306.438199,370.102971,9992.780217
816.290241,-229.828649,1036.288319,10066.800811
816.290556,-612.876398,592.164754,9474.636058
816.290872,-919.314598,-148.041188,8586.388927
816.291188,842.705048,-814.226536,10881.027347
816.291503,153.219100,-74.020594,10510.924376
816.291819,536.266849,1258.350101,9696.697840
816.292135,0.000000,-518.144159,9474.636058
816.292450,229.828649,-0.000000,9548.656652
816.292766,1149.143247,518.144159,9474.636058
816.293082,919.314598,1184.329507,9622.677246
816.293397,306.438199,518.144159,10362.883188
816.293713,229.828649,-444.123565,9770.718434
816.294028,766.095498,-148.041188,9104.533087
816.294344,1608.800546,296.082377,9178.553681
816.294660,1225.752797,814.226536,9400.615463
816.294975,689.485948,-0.000000,9622.677246
816.295291,76.609550,-518.144159,9252.574275
816.295607,1072.533697,-740.205942,9770.718434
816.295922,766.095498,-518.144159,10510.924376
816.296238,383.047749,592.164754,8808.450710
816.296554,-459.657299,-74.020594,9844.739029
816.296869,0.000000,-962.267725,9548.656652
816.297185,536.266849,-222.061783,9326.594869
816.297500,1072.533697,-0.000000,9474.636058
816.297816,229.828649,296.082377,9030.512492
816.298132,0.000000,-962.267725,9252.574275
816.298447,-536.266849,-1184.329507,9030.512492
816.298763,919.314598,-888.247130,10362.883188
816.299079,306.438199,148.041188,9992.780217
816.299394,0.000000,-444.123565,9844.739029
816.299710,-612.876398,-1480.411884,9474.636058
816.300026,-229.828649,-888.247130,9030.512492
816.300341,306.438199,-814.226536,9844.739029
816.300657,306.438199,-222.061783,9622.677246
816.300972,0.000000,-74.020594,9474.636058
816.301288,-919.314598,-1258.350101,8660.409521
816.301604,76.609550,-1850.514855,9696.697840
816.301919,842.705048,-1036.288319,9918.759623
816.302235,383.047749,-74.020594,8808.450710
816.302551,689.485948,-2072.576638,9844.739029
816.302866,459.657299,-1332.370696,8364.327145
816.303182,1378.971896,-1110.308913,8882.471304
816.303498,1455.581446,-444.123565,9548.656652
816.303813,1378.971896,222.061783,8882.471304
816.304129,689.485948,-888.247130,8660.409521
816.304444,459.657299,-592.164754,8364.327145
816.304760,1378.971896,-740.205942,9474.636058
816.305076,1302.362347,-74.020594,9474.636058
816.305391,766.095498,370.102971,8586.388927
816.305707,689.485948,-1036.288319,9030.512492
816.306023,383.047749,-1036.288319,9400.615463
816.306338,919.314598,-888.247130,9770.718434
816.306654,766.095498,296.082377,9696.697840
816.306970,612.876398,-0.000000,9474.636058
816.307285,-612.876398,-370.102971,8734.430116
816.307601,0.000000,-740.205942,9696.697840
816.307916,689.485948,-592.164754,10955.047942
816.308232,459.657299,666.185348,9474.636058
816.308548,153.219100,296.082377,9548.656652
816.308863,-229.828649,222.061783,9400.615463
816.309179,919.314598,-148.041188,9326.594869
816.309495,1149.143247,592.164754,9400.615463
816.309810,919.314598,740.205942,10288.862594
816.310126,76.609550,-0.000000,9622.677246
816.310442,383.047749,-222.061783,9104.533087
816.310757,1149.143247,-0.000000,10362.883188
816.311073,766.095498,666.185348,10066.800811
816.311388,459.657299,666.185348,9844.739029
816.311704,0.000000,-0.000000,9770.718434
816.312020,612.876398,-296.082377,9844.739029
816.312335,1608.800546,-0.000000,9918.759623
816.312651,995.924147,814.226536,8882.471304
816.312967,229.828649,296.082377,9622.677246
816.313282,0.000000,-1184.329507,9770.718434
816.313598,229.828649,-0.000000,9770.718434
816.313914,612.876398,-296.082377,10214.842000
816.314229,-536.266849,-148.041188,9992.780217
816.314545,-229.828649,-444.123565,10140.821405
816.314860,-306.438199,-888.247130,9696.697840
816.315176,-153.219100,-740.205942,9104.533087
816.315492,153.219100,-296.082377,10140.821405
816.315807,306.438199,444.123565,9844.739029
816.316123,-383.047749,-0.000000,8586.388927
816.316439,-995.924147,-666.185348,9178.553681
816.316754,-76.609550,-1554.432478,10807.006753
816.317070,-153.219100,-1110.308913,10066.800811
816.317386,-536.266849,-740.205942,10510.924376
816.317701,-689.485948,-1332.370696,9030.512492
816.318017,0.000000,-1480.411884,10066.800811
816.318332,1225.752797,-1258.350101,10214.842000
816.318648,1762.019645,-592.164754,8956.491898
816.318964,1072.533697,370.102971,8660.409521
816.319279,689.485948,-888.247130,8512.368333
816.319595,1532.190996,-740.205942,9252.574275
816.319911,2451.505594,-0.000000,9030.512492
816.320226,2451.505594,740.205942,8734.430116
816.320542,1532.190996,-148.041188,7328.038826
816.320858,1225.752797,-1184.329507,8734.430116
816.321173,1455.581446,-1702.473667,9178.553681
816.321489,2068.457845,-1036.288319,8808.450710
816.321804,995.924147,222.061783,8068.244768
816.322120,0.000000,-1480.411884,9104.533087
816.322436,-919.314598,-1998.556043,9770.718434
816.322751,-919.314598,-3182.885551,10436.903782
816.323067,-1302.362347,-1776.494261,10510.924376
816.323383,-1302.362347,-1480.411884,10436.903782
816.323698,-2451.505594,-2294.638420,9844.739029
816.324014,-2145.067394,-2220.617826,9474.636058
816.324330,-1455.581446,-1554.432478,10288.862594
816.324645,-919.314598,-1554.432478,9770.718434
816.324961,-842.705048,-888.247130,8586.388927
816.325276,-1455.581446,-1702.473667,9104.533087
816.325592,-1149.143247,-1924.535449,9474.636058
816.325908,-612.876398,-1702.473667,10140.821405
816.326223,-536.266849,-1036.288319,9548.656652
816.326539,-536.266849,-370.102971,9030.512492
816.326855,-919.314598,-1702.473667,9178.553681
816.327170,-766.095498,-1850.514855,8956.491898
816.327486,-383.047749,-1184.329507,9104.533087
816.327802,-842.705048,-1628.453072,9474.636058
816.328117,-842.705048,-1850.514855,9992.780217
816.328433,-1225.752797,-2442.679609,9252.574275
816.328748,-2221.676944,-2812.782580,9622.677246
816.329064,-2451.505594,-1924.535449,10362.883188
816.329380,-2068.457845,-2146.597232,10362.883188
816.329695,-1915.238745,-2294.638420,9844.739029
816.330011,-1532.190996,-1776.494261,9696.697840
816.330327,-2068.457845,-2220.617826,9400.615463
816.330642,-1991.848295,-1628.453072,9252.574275
816.330958,-1762.019645,-1850.514855,9030.512492
816.331274,-1455.581446,-2590.720797,8956.491898
816.331589,-1991.848295,-2368.659014,9474.636058
816.331905,-1608.800546,-3182.885551,9622.677246
816.332220,-2145.067394,-2886.803174,10140.821405
816.332536,-2068.457845,-1332.370696,9326.594869
816.332852,-1838.629195,-1702.473667,8660.409521
816.333167,-1532.190996,-1924.535449,9030.512492
816.333483,-1762.019645,-1924.535449,9474.636058
816.333799,-2451.505594,-1554.432478,9326.594869
816.334114,-1991.848295,-1036.288319,9104.533087
816.334430,-1378.971896,-2516.700203,8586.388927
816.334746,-1685.410096,-1776.494261,9178.553681
816.335061,-2068.457845,-2294.638420,9622.677246
816.335377,-2681.334243,-3034.844362,9992.780217
816.335692,-2451.505594,-2368.659014,10584.944971
816.336008,-2911.162892,-2368.659014,9548.656652
816.336324,-1991.848295,-1480.411884,9474.636058
816.336639,-1838.629195,-1258.350101,9474.636058
816.336955,-1915.238745,-2072.576638,8956.491898
816.337271,-1991.848295,-2294.638420,9696.697840
816.337586,-1685.410096,-1850.514855,9178.553681
816.337902,-1149.143247,-1406.391290,8882.471304
816.338218,-919.314598,-444.123565,8660.409521
816.338533,-1072.533697,-1036.288319,8364.327145
816.338849,-1149.143247,-2368.659014,9104.533087
816.339164,-1838.629195,-2368.659014,9696.697840
816.339480,-1991.848295,-1924.535449,9474.636058
816.339796,-2528.115143,-1628.453072,9474.636058
816.340111,-2221.676944,-2220.617826,10288.862594
816.340427,-1915.238745,-3478.967927,10140.821405
816.340743,-2145.067394,-3256.906145,11029.068536
816.341058,-2528.115143,-2886.803174,10584.944971
816.341374,-1991.848295,-2812.782580,9622.677246
816.341689,-1532.190996,-2146.597232,10140.821405
816.342005,-1149.143247,-1480.411884,9326.594869
816.342321,0.000000,-1110.308913,8216.285956
816.342636,229.828649,-1480.411884,9326.594869
816.342952,0.000000,-1776.494261,9252.574275
816.343268,536.266849,-2072.576638,8512.368333
816.343583,536.266849,-1850.514855,8734.430116
816.343899,0.000000,-814.226536,8660.409521
816.344215,153.219100,-1036.288319,8956.491898
816.344531,153.219100,-2368.659014,9770.718434
816.344846,-1302.362347,-2146.597232,9252.574275
816.345162,-1685.410096,-2368.659014,9326.594869
816.345478,-1762.019645,-3182.885551,10362.883188
816.345793,-2451.505594,-1924.535449,9696.697840
816.346109,-3140.991542,-1554.432478,9400.615463
816.346425,-2451.505594,-2368.659014,9696.697840
816.346741,-2374.896044,-2664.741391,9474.636058
816.347056,-3064.381992,-2738.761985,9622.677246
816.347372,-3447.429741,-3923.091493,9844.739029
816.347688,-2604.724693,-4145.153275,10584.944971
816.348004,-2451.505594,-3775.050304,10881.027347
816.348319,-2681.334243,-2812.782580,10066.800811
816.348635,-2298.286494,-1776.494261,9474.636058
816.348951,-1838.629195,-2220.617826,9104.533087
816.349266,-1455.581446,-2590.720797,9178.553681
816.349582,-766.095498,-2294.638420,8882.471304
816.349898,0.000000,-1406.391290,8216.285956
816.350214,-153.219100,-1332.370696,7698.141797
816.350529,0.000000,-1332.370696,7328.038826
816.350845,-612.876398,-1480.411884,7624.121203
816.351161,-766.095498,-2442.679609,8142.265362
816.351476,-1915.238745,-2886.803174,9696.697840
816.351792,-2834.553343,-4071.132681,9992.780217
816.352108,-3600.648841,-4441.235652,10732.986159
816.352424,-4213.525239,-4885.359217,11103.089130
816.352739,-4366.744339,-5107.421000,11621.233289
816.353055,-4060.306139,-4885.359217,11621.233289
816.353371,-4519.963438,-3701.029710,11325.150913
816.353687,-3677.258390,-1998.556043,10214.842000
816.354002,-2451.505594,-1258.350101,9252.574275
816.354318,-995.924147,-1554.432478,8734.430116
816.354634,-689.485948,-1258.350101,8216.285956
816.354949,383.047749,-1036.288319,7105.977043
816.355265,689.485948,-1258.350101,7328.038826
816.355581,1455.581446,-1776.494261,7920.203579
816.355897,1072.533697,-1480.411884,8364.327145
816.356212,766.095498,-666.185348,8586.388927
816.356528,0.000000,-592.164754,8586.388927
816.356844,-689.485948,-1924.535449,9326.594869
816.357160,-919.314598,-2590.720797,9474.636058
816.357475,-1532.190996,-2886.803174,10584.944971
816.357791,-2221.676944,-2664.741391,11177.109724
816.358107,-2604.724693,-2886.803174,10955.047942
816.358422,-2757.943793,-2886.803174,11325.150913
816.358738,-2604.724693,-1998.556043,10807.006753
816.359054,-2528.115143,-1776.494261,10214.842000
816.359370,-2298.286494,-740.205942,9178.553681
816.359685,-1838.629195,-962.267725,8512.368333
816.360001,-689.485948,-1258.350101,8290.306550
816.360317,383.047749,-1258.350101,8068.244768
816.360632,306.438199,-1406.391290,7994.224174
816.360948,-229.828649,-2368.659014,8142.265362
816.361264,-689.485948,-3404.947333,9474.636058
816.361580,-1302.362347,-3108.864956,10066.800811
816.361895,-1455.581446,-2516.700203,10732.986159
816.362211,-2298.286494,-1924.535449,11325.150913
816.362527,-2528.115143,-1850.514855,10881.027347
816.362843,-2681.334243,-1554.432478,10214.842000
816.363158,-2451.505594,-962.267725,9474.636058
816.363474,-1608.800546,-370.102971,9178.553681
816.363790,-1149.143247,-888.247130,8216.285956
816.364105,-612.876398,-1850.514855,8364.327145
816.364421,-919.314598,-2516.700203,8216.285956
816.364737,-1225.752797,-2812.782580,8734.430116
816.365053,-1838.629195,-3182.885551,9400.615463
816.365368,-2298.286494,-2960.823768,10214.842000
816.365684,-2451.505594,-3256.906145,10658.965565
816.366000,-2374.896044,-2516.700203,10584.944971
816.366316,-2374.896044,-2072.576638,10362.883188
816.366631,-1762.019645,-1702.473667,10066.800811
816.366947,-1685.410096,-1332.370696,9548.656652
816.367263,-1378.971896,-814.226536,8956.491898
816.367578,-842.705048,-296.082377,8512.368333
816.367894,-689.485948,-666.185348,8364.327145
816.368210,-612.876398,-888.247130,8142.265362
816.368526,-766.095498,-2072.576638,8438.347739
816.368841,-919.314598,-3182.885551,8586.388927
816.369157,-1608.800546,-3849.070898,9326.594869
816.369473,-1378.971896,-3923.091493,9474.636058
816.369788,-1991.848295,-3256.906145,10510.924376
816.370104,-2604.724693,-3108.864956,10584.944971
816.370420,-2451.505594,-2368.659014,10955.047942
816.370736,-2298.286494,-2146.597232,10362.883188
816.371051,-2451.505594,-1258.350101,9622.677246
816.371367,-1762.019645,-1184.329507,9326.594869
816.371683,-1072.533697,-1184.329507,8956.491898
816.371999,-612.876398,-1036.288319,8290.306550
816.372314,0.000000,-962.267725,7624.121203
816.372630,-229.828649,-1998.556043,7476.080014
816.372946,0.000000,-2368.659014,7920.203579
816.373261,-919.314598,-2738.761985,8216.285956
816.373577,-1455.581446,-3108.864956,8882.471304
816.373893,-2528.115143,-3997.112087,10066.800811
816.374209,-2987.772442,-4737.318029,10658.965565
816.374524,-4290.134789,-5403.503377,11843.295072
816.374840,-4673.182538,-5773.606348,12065.356855
816.375156,-4290.134789,-5033.400406,12435.459826
816.375472,-3830.477490,-3849.070898,11991.336260
816.375787,-3064.381992,-2442.679609,10881.027347
816.376103,-1915.238745,-1036.288319,9400.615463
816.376419,-689.485948,-222.061783,8364.327145
816.376734,689.485948,-370.102971,7328.038826
816.377050,2604.724693,-592.164754,6587.832884
816.377366,2604.724693,-962.267725,6439.791695
816.377682,3064.381992,-1332.370696,6217.729913
816.377997,2604.724693,-1998.556043,6809.894666
816.378313,1608.800546,-2368.659014,8068.244768
816.378629,383.047749,-3256.906145,9326.594869
816.378944,-1149.143247,-3775.050304,10362.883188
816.379260,-2604.724693,-3923.091493,11029.068536
816.379576,-3753.867940,-3775.050304,11621.233289
816.379892,-3753.867940,-3034.844362,12065.356855
816.380207,-4519.963438,-2590.720797,11621.233289
816.380523,-4290.134789,-2294.638420,10955.047942
816.380839,-3907.087040,-2220.617826,9992.780217
816.381155,-3140.991542,-2516.700203,9548.656652
816.381470,-2451.505594,-2886.803174,9326.594869
816.381786,-1915.238745,-2442.679609,8660.409521
816.382102,-1149.143247,-2146.597232,7920.203579
816.382417,-689.485948,-1776.494261,7550.100608
816.382733,-612.876398,-1628.453072,7920.203579
816.383049,-612.876398,-2220.617826,8512.368333
816.383365,-766.095498,-2664.741391,9548.656652
816.383680,-1455.581446,-2664.741391,9844.739029
816.383996,-1838.629195,-2368.659014,9844.739029
816.384312,-1991.848295,-1776.494261,10288.862594
816.384628,-1532.190996,-1110.308913,10140.821405
816.384943,-2298.286494,-1480.411884,10214.842000
816.385259,-2221.676944,-1480.411884,10066.800811
816.385575,-2451.505594,-1850.514855,9696.697840
816.385890,-2298.286494,-2072.576638,9400.615463
816.386206,-1915.238745,-2812.782580,9326.594869
816.386522,-1072.533697,-2442.679609,9030.512492
816.386838,-1149.143247,-2812.782580,8586.388927
816.387153,-995.924147,-2516.700203,8882.471304
816.387469,-1225.752797,-2516.700203,9178.553681
816.387785,-919.314598,-3182.885551,9844.739029
816.388100,-919.314598,-2146.597232,9770.718434
816.388416,-1378.971896,-1554.432478,9622.677246
816.388732,-612.876398,-888.247130,9918.759623
816.389048,-612.876398,-962.267725,9548.656652
816.389363,-766.095498,-888.247130,9474.636058
816.389679,76.609550,-370.102971,9178.553681
816.389995,383.047749,-296.082377,8660.409521
816.390311,766.095498,-370.102971,8734.430116
816.390626,766.095498,-592.164754,8364.327145
816.390942,689.485948,-888.247130,8364.327145
816.391258,76.609550,-1184.329507,8586.388927
816.391573,-459.657299,-1702.473667,9326.594869
816.391889,-1378.971896,-2368.659014,9770.718434
816.392205,-2068.457845,-2146.597232,10436.903782
816.392521,-2911.162892,-1924.535449,10362.883188
816.392836,-2834.553343,-1332.370696,10658.965565
816.393152,-2681.334243,-592.164754,10807.006753
816.393468,-2528.115143,-148.041188,10436.903782
816.393784,-2374.896044,-0.000000,10066.800811
816.394099,-1915.238745,-444.123565,9400.615463
816.394415,-842.705048,-740.205942,9474.636058
816.394731,0.000000,-1184.329507,8956.491898
816.395046,0.000000,-1184.329507,8660.409521
816.395362,0.000000,-1332.370696,8586.388927
816.395678,-383.047749,-1480.411884,9178.553681
816.395994,-842.705048,-1628.453072,9326.594869
816.396309,-1378.971896,-1998.556043,9474.636058
816.396625,-2145.067394,-2146.597232,9622.677246
816.396941,-2834.553343,-2738.761985,10140.821405
816.397256,-3140.991542,-2886.803174,10288.862594
816.397572,-3524.039291,-2516.700203,10584.944971
816.397888,-3830.477490,-2664.741391,10584.944971
816.398204,-4366.744339,-3108.864956,10955.047942
816.398519,-4060.306139,-3923.091493,10732.986159
816.398835,-4213.525239,-4367.215058,10510.924376
816.399151,-3983.696590,-4663.297435,10140.821405
816.399467,-3447.429741,-4589.276840,9992.780217
816.399782,-2681.334243,-4737.318029,9770.718434
816.400098,-2451.505594,-4441.235652,9326.594869
816.400414,-2221.676944,-4367.215058,8808.450710
816.400729,-1608.800546,-4293.194464,8956.491898
816.401045,-1455.581446,-4219.173869,8882.471304
816.401361,-2145.067394,-4515.256246,9030.512492
816.401677,-2221.676944,-3923.091493,9326.594869
816.401992,-1915.238745,-3775.050304,9178.553681
816.402308,-1991.848295,-3923.091493,9548.656652
816.402624,-1838.629195,-3997.112087,9622.677246
816.402940,-1915.238745,-3997.112087,9104.533087
816.403255,-1838.629195,-3923.091493,9104.533087
816.403571,-1532.190996,-3775.050304,8956.491898
816.403887,-689.485948,-3256.906145,8364.327145
816.404202,-689.485948,-2812.782580,7846.182985
816.404518,-842.705048,-2368.659014,7550.100608
816.404834,-383.047749,-2442.679609,7550.100608
816.405150,-689.485948,-2442.679609,7624.121203
816.405465,-919.314598,-2664.741391,7698.141797
816.405781,-1378.971896,-3108.864956,8068.244768
816.406097,-2068.457845,-3034.844362,8808.450710
816.406412,-2834.553343,-3478.967927,9548.656652
816.406728,-3294.210641,-3701.029710,10066.800811
816.407044,-3600.648841,-3552.988522,10362.883188
816.407360,-3064.381992,-3701.029710,10584.944971
816.407675,-3370.820191,-3552.988522,10732.986159
816.407991,-2604.724693,-3552.988522,10881.027347
816.408307,-1838.629195,-2738.761985,9918.759623
816.408623,-689.485948,-2072.576638,9400.615463
816.408938,-383.047749,-1258.350101,8586.388927
816.409254,306.438199,-296.082377,8068.244768
816.409570,842.705048,370.102971,7624.121203
816.409885,1455.581446,592.164754,6883.915261
816.410201,1302.362347,666.185348,6587.832884
816.410517,1072.533697,296.082377,7179.997637
816.410833,536.266849,-888.247130,7846.182985
816.411148,0.000000,-1554.432478,8808.450710
816.411464,-1608.800546,-2368.659014,9844.739029
816.411780,-2681.334243,-3775.050304,11473.192101
816.412095,-3370.820191,-4515.256246,13027.624579
816.412411,-3600.648841,-4219.173869,13323.706956
816.412727,-4136.915689,-3997.112087,13767.830521
816.413043,-3600.648841,-2812.782580,13101.645173
816.413358,-2834.553343,-1036.288319,11621.233289
816.413674,-1685.410096,370.102971,10140.821405
816.413990,-383.047749,1184.329507,8808.450710
816.414306,689.485948,1850.514855,7254.018232
816.414621,1532.190996,1850.514855,6217.729913
816.414937,1455.581446,1258.350101,6143.709319
816.415253,1608.800546,592.164754,6661.853478
816.415568,995.924147,-518.144159,7846.182985
816.415884,-229.828649,-2072.576638,9326.594869
816.416200,-1991.848295,-2812.782580,10881.027347
816.416516,-3294.210641,-3478.967927,12287.418637
816.416831,-4213.525239,-3997.112087,13175.665768
816.417147,-4749.792088,-3034.844362,13027.624579
816.417463,-4826.401637,-2220.617826,12657.521608
816.417779,-4519.963438,-1480.411884,11621.233289
816.418094,-4060.306139,-222.061783,10658.965565
816.418410,-3524.039291,-0.000000,9252.574275
816.418726,-2221.676944,-296.082377,8660.409521
816.419041,-1302.362347,-888.247130,8142.265362
816.419357,-1225.752797,-1850.514855,8068.244768
816.419673,-1072.533697,-2294.638420,7920.203579
816.419989,-995.924147,-1924.535449,7772.162391
816.420304,-689.485948,-1924.535449,8290.306550
816.420620,-306.438199,-1554.432478,8586.388927
816.420936,-1378.971896,-1480.411884,8956.491898
816.421251,-1915.238745,-2220.617826,9326.594869
816.421567,-2145.067394,-2812.782580,9992.780217
816.421883,-2528.115143,-3997.112087,10658.965565
816.422199,-2987.772442,-3997.112087,11473.192101
816.422514,-3677.258390,-3478.967927,10881.027347
816.422830,-3600.648841,-3034.844362,10362.883188
816.423146,-2604.724693,-3108.864956,10214.842000
816.423462,-2068.457845,-2960.823768,9326.594869
816.423777,-1149.143247,-2886.803174,8438.347739
816.424093,-919.314598,-2886.803174,7624.121203
816.424409,0.000000,-3627.009116,7254.018232
816.424724,306.438199,-4441.235652,7698.141797
816.425040,0.000000,-4441.235652,8290.306550
816.425356,-76.609550,-4293.194464,8956.491898
816.425672,-1149.143247,-4515.256246,9474.636058
816.425987,-1838.629195,-4145.153275,9770.718434
816.426303,-1915.238745,-2812.782580,9770.718434
816.426619,-1532.190996,-2072.576638,9252.574275
816.426935,-995.924147,-2368.659014,9178.553681
816.427250,0.000000,-2886.803174,9104.533087
816.427566,0.000000,-2886.803174,8290.306550
816.427882,153.219100,-2812.782580,8142.265362
816.428197,229.828649,-2886.803174,8586.388927
816.428513,-383.047749,-3034.844362,7994.224174
816.428829,-919.314598,-3256.906145,8290.306550
816.429145,-842.705048,-3552.988522,8882.471304
816.429460,-1455.581446,-4441.235652,9696.697840
816.429776,-2298.286494,-4441.235652,9548.656652
816.430092,-2681.334243,-4071.132681,10362.883188
816.430407,-2757.943793,-3330.926739,10214.842000
816.430723,-2911.162892,-2220.617826,10436.903782
816.431039,-2604.724693,-1036.288319,10140.821405
816.431355,-1991.848295,-814.226536,9400.615463
816.431670,-1532.190996,-1184.329507,9474.636058
816.431986,-1378.971896,-1332.370696,9178.553681
816.432302,-766.095498,-1110.308913,8586.388927
816.432618,-229.828649,-814.226536,7920.203579
816.432933,0.000000,-1110.308913,7624.121203
816.433249,-76.609550,-1406.391290,7772.162391
816.433565,-229.828649,-2886.803174,9326.594869
816.433880,-1685.410096,-3182.885551,9992.780217
816.434196,-2987.772442,-2812.782580,10510.924376
816.434512,-3830.477490,-3552.988522,11103.089130
816.434828,-3907.087040,-3182.885551,11843.295072
816.435143,-4290.134789,-1924.535449,11917.315666
816.435459,-3753.867940,-1110.308913,11843.295072
816.435775,-3524.039291,-1628.453072,10658.965565
816.436091,-2757.943793,-666.185348,10732.986159
816.436406,-2221.676944,-148.041188,9474.636058
816.436722,-459.657299,296.082377,7624.121203
816.437038,0.000000,-0.000000,7624.121203
816.437353,766.095498,-814.226536,8068.244768
816.437669,1149.143247,-1850.514855,7846.182985
816.437985,306.438199,-1480.411884,7550.100608
816.438301,-689.485948,-1554.432478,9030.512492
816.438616,-995.924147,-2812.782580,9548.656652
816.438932,-1838.629195,-2590.720797,10140.821405
816.439248,-2681.334243,-2368.659014,11103.089130
816.439563,-3600.648841,-3108.864956,11843.295072
816.439879,-3677.258390,-2294.638420,12139.377449
816.440195,-3983.696590,-1036.288319,11621.233289
816.440511,-3447.429741,-740.205942,10584.944971
816.440826,-2221.676944,-444.123565,9918.759623
816.441142,-1225.752797,-370.102971,8956.491898
816.441458,-383.047749,-518.144159,7920.203579
816.441774,383.047749,-1110.308913,7179.997637
816.442089,612.876398,-1036.288319,7624.121203
816.442405,919.314598,-296.082377,7105.977043
816.442721,766.095498,-1036.288319,8068.244768
816.443036,766.095498,-1776.494261,9400.615463
816.443352,-766.095498,-1628.453072,8808.450710
816.443668,-1915.238745,-2146.597232,9770.718434
816.443984,-2528.115143,-1628.453072,10584.944971
816.444299,-2374.896044,-1332.370696,10140.821405
816.444616,-2911.162892,-2294.638420,11177.109724
816.444932,-3140.991542,-1924.535449,11843.295072
816.445248,-3217.601092,-2146.597232,10881.027347
816.445563,-3064.381992,-2886.803174,10288.862594
816.445879,-1915.238745,-1776.494261,9992.780217
816.446195,-306.438199,-1998.556043,9400.615463
816.446511,76.609550,-1628.453072,8586.388927
816.446826,0.000000,-222.061783,7105.977043
816.447142,306.438199,-1036.288319,7179.997637
816.447458,842.705048,-814.226536,7698.141797
816.447774,919.314598,-666.185348,6735.874072
816.448089,153.219100,-2146.597232,7994.224174
816.448405,-842.705048,-2590.720797,10066.800811
816.448721,-2451.505594,-3108.864956,10362.883188
816.449036,-2604.724693,-3034.844362,10436.903782
816.449352,-1838.629195,-3330.926739,12065.356855
816.449668,-2528.115143,-3701.029710,11473.192101
816.449984,-2451.505594,-2294.638420,11177.109724
816.450299,-2068.457845,-1776.494261,10066.800811
816.450615,-919.314598,-1776.494261,8956.491898
816.450931,1302.362347,-592.164754,8142.265362
816.451247,1532.190996,-518.144159,7994.224174
816.451562,1378.971896,-222.061783,6513.812290
816.451878,1455.581446,-74.020594,7476.080014
816.452194,1455.581446,-740.205942,7624.121203
816.452509,919.314598,-444.123565,7698.141797
816.452825,383.047749,-444.123565,9548.656652
816.453141,-306.438199,-444.123565,9104.533087
816.453457,-689.485948,-1332.370696,10140.821405
816.453772,-612.876398,-1554.432478,11251.130318
816.454088,-536.266849,-1850.514855,10510.924376
816.454404,-612.876398,-2072.576638,11547.212695
816.454720,-536.266849,-1776.494261,10955.047942
816.455035,-689.485948,-1776.494261,9696.697840
816.455351,612.876398,-814.226536,9992.780217
816.455667,1302.362347,-1036.288319,9696.697840
816.455982,1455.581446,222.061783,8808.450710
816.456298,842.705048,1036.288319,7994.224174
816.456614,995.924147,-0.000000,7031.956449
816.456930,766.095498,-814.226536,9178.553681
816.457245,1302.362347,-0.000000,9548.656652
816.457561,919.314598,-518.144159,8216.285956
816.457877,0.000000,-222.061783,9252.574275
816.458193,-689.485948,-1258.350101,10807.006753
816.458508,-153.219100,-2442.679609,11621.233289
816.458824,0.000000,-1258.350101,11399.171507
816.459140,-1378.971896,-1036.288319,11843.295072
816.459455,-1072.533697,-1110.308913,11547.212695
816.459771,0.000000,-1184.329507,10436.903782
816.460087,383.047749,-666.185348,9770.718434
816.460403,1915.238745,-0.000000,10584.944971
816.460718,1838.629195,-148.041188,8660.409521
816.461034,1915.238745,-148.041188,8734.430116
816.461350,2068.457845,296.082377,8142.265362
816.461666,2911.162892,222.061783,8512.368333
816.461981,2604.724693,1036.288319,8512.368333
816.462297,1532.190996,592.164754,9400.615463
816.462613,842.705048,592.164754,9030.512492
816.462928,1072.533697,592.164754,8660.409521
816.463244,1608.800546,-74.020594,9622.677246
816.463560,842.705048,222.061783,9474.636058
816.463876,153.219100,-296.082377,10214.842000
816.464191,-153.219100,-1036.288319,9548.656652
816.464507,-76.609550,-888.247130,9474.636058
816.464823,919.314598,-740.205942,10881.027347
816.465139,153.219100,-296.082377,9992.780217
816.465454,0.000000,962.267725,8364.327145
816.465770,0.000000,296.082377,8364.327145
816.466086,612.876398,222.061783,8438.347739
816.466402,842.705048,518.144159,8364.327145
816.466717,0.000000,962.267725,8512.368333
816.467033,-153.219100,-0.000000,8586.388927
816.467349,-919.314598,-148.041188,9252.574275
816.467664,-689.485948,-0.000000,10436.903782
816.467980,-842.705048,222.061783,10510.924376
816.468296,-1149.143247,888.247130,9622.677246
816.468612,-1302.362347,296.082377,9474.636058
816.468927,-842.705048,-518.144159,9696.697840
816.469243,842.705048,-148.041188,10214.842000
816.469559,1072.533697,592.164754,9474.636058
816.469875,1149.143247,1036.288319,8956.491898
816.470190,1072.533697,444.123565,8142.265362
816.470506,919.314598,-74.020594,9030.512492
816.470822,1991.848295,-0.000000,9326.594869
816.471137,689.485948,296.082377,9548.656652
816.471453,0.000000,-148.041188,9030.512492
816.471769,0.000000,-1332.370696,9844.739029
816.472085,0.000000,-1258.350101,9844.739029
816.472400,0.000000,-666.185348,10584.944971
816.472716,-612.876398,-1110.308913,10436.903782
816.473032,-1302.362347,-1110.308913,9992.780217
816.473348,-842.705048,-1036.288319,10732.986159
816.473663,76.609550,-814.226536,9844.739029
816.473979,689.485948,-1258.350101,10362.883188
816.474295,459.657299,-666.185348,9918.759623
816.474610,919.314598,-666.185348,9252.574275
816.474926,1225.752797,-1184.329507,8364.327145
816.475242,2068.457845,-1036.288319,9548.656652
816.475558,2451.505594,-518.144159,9844.739029
816.475873,1762.019645,296.082377,8734.430116
816.476189,1455.581446,-0.000000,9030.512492
816.476505,995.924147,-1036.288319,9104.533087
816.476821,1455.581446,-962.267725,11029.068536
816.477136,995.924147,-1110.308913,11621.233289
816.477452,0.000000,-0.000000,9548.656652
816.477768,306.438199,148.041188,8882.471304
816.478083,306.438199,-0.000000,9474.636058
816.478399,1532.190996,-74.020594,9844.739029
816.478715,1072.533697,296.082377,8586.388927
816.479031,459.657299,370.102971,8956.491898
816.479346,766.095498,-888.247130,9030.512492
816.479662,1302.362347,-518.144159,9326.594869
816.479978,1302.362347,-888.247130,9326.594869
816.480294,383.047749,-370.102971,8660.409521
816.480609,383.047749,-962.267725,9844.739029
816.480925,0.000000,-1036.288319,8734.430116
816.481241,-306.438199,-370.102971,9178.553681
816.481556,536.266849,-0.000000,10140.821405
816.481872,-536.266849,666.185348,8290.306550
816.482188,-689.485948,-444.123565,9252.574275
816.482504,-842.705048,-962.267725,9770.718434
816.482819,153.219100,-962.267725,10510.924376
816.483135,0.000000,-222.061783,9918.759623
816.483451,-766.095498,370.102971,8808.450710
816.483767,0.000000,-0.000000,8660.409521
816.484082,536.266849,666.185348,7994.224174
816.484398,1685.410096,370.102971,9104.533087
816.484714,766.095498,518.144159,9104.533087
816.485030,229.828649,370.102971,8216.285956
816.485345,153.219100,-370.102971,8364.327145
816.485661,842.705048,-296.082377,9696.697840
816.485977,1302.362347,-148.041188,10436.903782
816.486292,-229.828649,148.041188,9400.615463
816.486608,-536.266849,-370.102971,10066.800811
816.486924,-383.047749,-222.061783,8956.491898
816.487240,383.047749,-74.020594,10066.800811
816.487555,766.095498,-148.041188,9770.718434
816.487871,-612.876398,296.082377,8512.368333
816.488187,0.000000,-1110.308913,9770.718434
816.488503,0.000000,-444.123565,8438.347739
816.488818,842.705048,-222.061783,9844.739029
816.489134,536.266849,-370.102971,9918.759623
816.489450,-153.219100,-148.041188,9178.553681
816.489765,0.000000,-370.102971,9844.739029
816.490081,459.657299,-222.061783,9622.677246
816.490397,919.314598,444.123565,9474.636058
816.490713,919.314598,-74.020594,10436.903782
816.491028,76.609550,-0.000000,9252.574275
816.491344,0.000000,-1110.308913,10732.986159
816.491660,153.219100,-222.061783,10288.862594
816.491976,995.924147,-0.000000,9918.759623
816.492291,0.000000,444.123565,10584.944971
816.492607,383.047749,-0.000000,10807.006753
816.492923,1149.143247,-74.020594,9030.512492
816.493238,1378.971896,888.247130,9252.574275
816.493554,2068.457845,370.102971,9992.780217
816.493870,1225.752797,222.061783,9104.533087
816.494186,842.705048,-0.000000,9252.574275
816.494501,612.876398,-74.020594,9178.553681
816.494817,1225.752797,-148.041188,9992.780217
816.495133,1225.752797,-0.000000,10658.965565
816.495449,306.438199,222.061783,9326.594869
816.495764,0.000000,-0.000000,9400.615463
816.496080,0.000000,-518.144159,8882.471304
816.496396,536.266849,-666.185348,9992.780217
816.496711,229.828649,-518.144159,9770.718434
816.497027,459.657299,-148.041188,8290.306550
816.497343,229.828649,-370.102971,9104.533087
816.497659,229.828649,-740.205942,8438.347739
816.497974,766.095498,-740.205942,9548.656652
816.498290,76.609550,-222.061783,9770.718434
816.498606,0.000000,-962.267725,9252.574275
816.498922,76.609550,-1036.288319,8882.471304
816.499237,689.485948,-296.082377,9474.636058
816.499553,1378.971896,370.102971,8956.491898
816.499869,229.828649,370.102971,8734.430116
816.500185,383.047749,-0.000000,9252.574275
816.500500,76.609550,-1036.288319,9104.533087
816.500816,612.876398,-148.041188,9770.718434
816.501132,842.705048,-0.000000,9326.594869
816.501447,229.828649,-148.041188,8956.491898
816.501763,229.828649,-1258.350101,9178.553681
816.502079,153.219100,-814.226536,8808.450710
816.502395,1149.143247,444.123565,9400.615463
816.502710,689.485948,370.102971,9030.512492
816.503026,-383.047749,222.061783,8586.388927
816.503342,-153.219100,-962.267725,9770.718434
816.503658,0.000000,-1480.411884,9400.615463
816.503973,306.438199,-1184.329507,9770.718434
816.504289,-383.047749,-1332.370696,10436.903782
816.504605,-766.095498,-1110.308913,10214.842000
816.504920,-919.314598,-1332.370696,9696.697840
816.505236,536.266849,-444.123565,9548.656652
816.505552,689.485948,370.102971,9770.718434
816.505868,0.000000,296.082377,9326.594869
816.506183,153.219100,-370.102971,9548.656652
816.506499,306.438199,-1554.432478,9622.677246
816.506815,612.876398,-0.000000,9548.656652
816.507131,1685.410096,-0.000000,10140.821405
816.507446,842.705048,-0.000000,8808.450710
816.507762,459.657299,740.205942,8956.491898
816.508078,459.657299,518.144159,9326.594869
816.508393,1455.581446,370.102971,9400.615463
816.508709,842.705048,1036.288319,9770.718434
816.509025,0.000000,-0.000000,9696.697840
816.509341,229.828649,-1332.370696,10584.944971
816.509656,-153.219100,-740.205942,9992.780217
816.509972,153.219100,-148.041188,10732.986159
816.510288,229.828649,592.164754,10288.862594
816.510604,-306.438199,962.267725,9252.574275
816.510919,-153.219100,-0.000000,9696.697840
816.511235,536.266849,444.123565,8882.471304
816.511551,1378.971896,-74.020594,9622.677246
816.511866,536.266849,296.082377,9400.615463
816.512182,536.266849,-148.041188,9474.636058
816.512498,229.828649,-1110.308913,9400.615463
816.512814,689.485948,-0.000000,9400.615463
816.513129,1072.533697,444.123565,9844.739029
816.513445,229.828649,666.185348,9326.594869
816.513761,153.219100,370.102971,8956.491898
816.514077,76.609550,-444.123565,8734.430116
816.514392,995.924147,-444.123565,9770.718434
816.514708,536.266849,-814.226536,10288.862594
816.515024,-459.657299,-444.123565,9178.553681
816.515339,0.000000,-814.226536,9400.615463
816.515655,306.438199,-814.226536,9400.615463
816.515971,0.000000,296.082377,9918.759623
816.516287,383.047749,518.144159,9326.594869
816.516602,0.000000,-74.020594,8586.388927
816.516918,0.000000,-888.247130,9400.615463
816.517234,995.924147,-740.205942,8364.327145
816.517550,1378.971896,-1036.288319,9474.636058
816.517865,306.438199,-518.144159,9252.574275
816.518181,153.219100,-0.000000,9622.677246
816.518497,-306.438199,-666.185348,8882.471304
816.518813,383.047749,-296.082377,8586.388927
816.519128,842.705048,-296.082377,10436.903782
816.519444,306.438199,-0.000000,9622.677246
816.519760,76.609550,-370.102971,9178.553681
816.520075,459.657299,-888.247130,9030.512492
816.520391,1302.362347,-148.041188,9326.594869
816.520707,1608.800546,370.102971,9326.594869
816.521023,689.485948,370.102971,9326.594869
816.521338,766.095498,-296.082377,9326.594869
816.521654,612.876398,-444.123565,9400.615463
816.521970,1532.190996,-0.000000,9770.718434
816.522286,536.266849,-74.020594,10214.842000
816.522601,383.047749,-74.020594,9622.677246
816.522917,536.266849,-666.185348,9400.615463
816.523233,842.705048,-148.041188,8364.327145
816.523548,1762.019645,370.102971,10362.883188
816.523864,1378.971896,-222.061783,9474.636058
816.524180,459.657299,-148.041188,8956.491898
816.524496,459.657299,-1036.288319,9992.780217
816.524811,842.705048,-592.164754,9252.574275
816.525127,995.924147,-74.020594,9844.739029
816.525443,306.438199,222.061783,9474.636058
816.525759,-76.609550,-296.082377,9844.739029
816.526074,-153.219100,-444.123565,9030.512492
816.526390,459.657299,-222.061783,9030.512492
816.526706,689.485948,-0.000000,9844.739029
816.527021,0.000000,-222.061783,9474.636058
816.527337,-689.485948,-1184.329507,10066.800811
816.527653,-612.876398,-1332.370696,10066.800811
816.527969,612.876398,-1628.453072,10658.965565
816.528284,-153.219100,-740.205942,10732.986159
816.528600,-995.924147,222.061783,10362.883188
816.528916,-229.828649,-0.000000,9178.553681
816.529232,153.219100,740.205942,8734.430116
816.529547,1225.752797,296.082377,10214.842000
816.529863,995.924147,-0.000000,9326.594869
816.530179,612.876398,-0.000000,8734.430116
816.530494,612.876398,-1184.329507,9104.533087
816.530810,766.095498,-518.144159,9326.594869
816.531126,1608.800546,-0.000000,10066.800811
816.531442,612.876398,-0.000000,9326.594869
816.531757,76.609550,296.082377,9622.677246
816.532073,0.000000,-518.144159,9030.512492
816.532389,766.095498,-518.144159,8956.491898
816.532705,1225.752797,-0.000000,9474.636058
816.533020,-383.047749,-444.123565,9104.533087
816.533336,0.000000,-888.247130,9844.739029
816.533652,-536.266849,-1776.494261,9178.553681
816.533967,612.876398,-888.247130,10658.965565
816.534283,-306.438199,-518.144159,9548.656652
816.534599,-383.047749,222.061783,9770.718434
816.534915,-229.828649,-740.205942,8660.409521
816.535230,306.438199,-888.247130,9474.636058
816.535546,1608.800546,444.123565,9400.615463
816.535862,1149.143247,1184.329507,8364.327145
816.536178,1072.533697,592.164754,8660.409521
816.536493,459.657299,-0.000000,8808.450710
816.536809,1302.362347,148.041188,8734.430116
816.537125,1378.971896,296.082377,9474.636058
816.537441,766.095498,222.061783,9918.759623
816.537756,0.000000,222.061783,9252.574275
816.538072,0.000000,-296.082377,9400.615463
816.538388,995.924147,-888.247130,9622.677246
816.538703,766.095498,444.123565,10288.862594
816.539019,229.828649,888.247130,8882.471304
816.539335,612.876398,-592.164754,8882.471304
816.539651,76.609550,814.226536,9474.636058
816.539966,689.485948,-148.041188,10214.842000
816.540282,842.705048,148.041188,9474.636058
816.540598,0.000000,1036.288319,9178.553681
816.540914,-536.266849,-370.102971,9030.512492
816.541229,306.438199,-0.000000,8882.471304
816.541545,689.485948,-222.061783,9770.718434
816.541861,766.095498,-592.164754,10510.924376
816.542176,0.000000,148.041188,8882.471304
816.542492,0.000000,-814.226536,8956.491898
816.542808,0.000000,-666.185348,9844.739029
816.543124,1225.752797,296.082377,10658.965565
816.543439,153.219100,444.123565,10066.800811
816.543755,0.000000,296.082377,9770.718434
816.544071,383.047749,-444.123565,9178.553681
816.544387,1455.581446,444.123565,9252.574275
816.544702,1685.410096,518.144159,9844.739029
816.545018,1149.143247,-0.000000,8660.409521
816.545334,689.485948,-148.041188,9548.656652
816.545649,612.876398,-222.061783,9622.677246
816.545965,1532.190996,444.123565,9326.594869
816.546281,1378.971896,-74.020594,9844.739029
816.546596,-229.828649,-148.041188,9918.759623
816.546912,0.000000,-814.226536,9696.697840
816.547228,459.657299,-666.185348,9474.636058
816.547544,766.095498,-296.082377,10362.883188
816.547859,383.047749,-370.102971,10066.800811
816.548175,-153.219100,444.123565,9400.615463
816.548491,0.000000,-740.205942,9622.677246
816.548806,229.828649,-296.082377,9622.677246
816.549122,766.095498,-148.041188,9844.739029
816.549438,76.609550,-0.000000,9474.636058
816.549753,-229.828649,-370.102971,9548.656652
816.550069,229.828649,-1036.288319,9622.677246
816.550385,689.485948,-296.082377,9104.533087
816.550700,1378.971896,-0.000000,9400.615463
816.551016,76.609550,-0.000000,9252.574275
816.551332,0.000000,-370.102971,9918.759623
816.551647,0.000000,-962.267725,9178.553681
816.551963,153.219100,-148.041188,8586.388927
816.552279,0.000000,-666.185348,10510.924376
816.552595,-536.266849,-888.247130,10510.924376
816.552910,-689.485948,-1036.288319,9474.636058
816.553226,0.000000,-444.123565,9030.512492
816.553542,612.876398,-74.020594,9844.739029
816.553857,919.314598,-148.041188,9104.533087
816.554173,459.657299,370.102971,7920.203579
816.554489,459.657299,-592.164754,8882.471304
816.554804,0.000000,-1480.411884,9178.553681
816.555120,1378.971896,-296.082377,9844.739029
816.555436,306.438199,-0.000000,9548.656652
816.555751,0.000000,296.082377,8956.491898
816.556067,0.000000,-74.020594,8438.347739
816.556383,459.657299,-74.020594,7994.224174
816.556698,1072.533697,-222.061783,10584.944971
816.557014,153.219100,-370.102971,9252.574275
816.557330,-229.828649,-222.061783,8734.430116
816.557646,-229.828649,-1258.350101,9844.739029
816.557961,76.609550,-888.247130,10140.821405
816.558277,766.095498,-222.061783,10214.842000
816.558593,-153.219100,666.185348,9474.636058
816.558908,0.000000,-0.000000,9104.533087
816.559224,383.047749,-148.041188,8142.265362
816.559540,1915.238745,-0.000000,9104.533087
816.559855,1838.629195,222.061783,9770.718434
816.560171,919.314598,296.082377,7994.224174
816.560487,612.876398,-296.082377,8808.450710
816.560802,612.876398,-222.061783,9474.636058
816.561118,842.705048,-222.061783,10140.821405
816.561434,536.266849,-74.020594,10140.821405
816.561749,-612.876398,-370.102971,9548.656652
816.562065,-383.047749,-1184.329507,9918.759623
816.562381,842.705048,-592.164754,9326.594869
816.562697,1072.533697,-592.164754,10214.842000
816.563012,306.438199,-370.102971,10288.862594
816.563328,689.485948,-74.020594,9400.615463
816.563644,0.000000,-296.082377,8586.388927
816.563959,689.485948,296.082377,9400.615463
816.564275,1149.143247,-370.102971,10584.944971
816.564591,612.876398,222.061783,9474.636058
816.564906,0.000000,-222.061783,10140.821405
816.565222,689.485948,-888.247130,9548.656652
816.565538,1915.238745,-148.041188,9992.780217
816.565853,1302.362347,1110.308913,9548.656652
816.566169,459.657299,1332.370696,9770.718434
816.566485,995.924147,-0.000000,10066.800811
816.566801,1225.752797,222.061783,9400.615463
816.567116,2068.457845,666.185348,10658.965565
816.567432,1608.800546,740.205942,9030.512492
816.567748,536.266849,888.247130,9622.677246
816.568063,689.485948,-0.000000,9326.594869
816.568379,1455.581446,148.041188,8734.430116
816.568695,1685.410096,444.123565,10584.944971
816.569010,689.485948,444.123565,9326.594869
816.569326,76.609550,-0.000000,9030.512492
816.569642,383.047749,-370.102971,9992.780217
816.569957,229.828649,370.102971,8956.491898
816.570273,536.266849,222.061783,10066.800811
816.570589,-229.828649,296.082377,10658.965565
816.570904,-612.876398,-444.123565,9030.512492
816.571220,-536.266849,-370.102971,8438.347739
816.571536,612.876398,-296.082377,9178.553681
816.571852,229.828649,-370.102971,10140.821405
816.572167,0.000000,-0.000000,9178.553681
816.572483,0.000000,-0.000000,8882.471304
816.572799,0.000000,-296.082377,8512.368333
816.573114,995.924147,-370.102971,9918.759623
816.573430,306.438199,-0.000000,9770.718434
816.573746,-536.266849,518.144159,8364.327145
816.574061,0.000000,-518.144159,8512.368333
816.574377,0.000000,-148.041188,8808.450710
816.574693,306.438199,-74.020594,10066.800811
816.575008,0.000000,-888.247130,9474.636058
816.575324,-612.876398,-740.205942,9030.512492
816.575640,-459.657299,-1110.308913,9178.553681
816.575955,0.000000,-1036.288319,9474.636058
816.576271,766.095498,-666.185348,10214.842000
816.576587,0.000000,-0.000000,9844.739029
816.576903,153.219100,-0.000000,8438.347739
816.577218,153.219100,-962.267725,7920.203579
816.577534,766.095498,-888.247130,9770.718434
816.577850,1149.143247,-1184.329507,10066.800811
816.578165,306.438199,-518.144159,8956.491898
816.578481,76.609550,-1406.391290,9400.615463
816.578797,306.438199,-1628.453072,9622.677246
816.579112,1378.971896,-962.267725,10140.821405
816.579428,1072.533697,-0.000000,10140.821405
816.579744,153.219100,666.185348,8956.491898
816.580059,612.876398,-740.205942,9178.553681
816.580375,995.924147,-0.000000,8882.471304
816.580691,1685.410096,-0.000000,9770.718434
816.581006,1149.143247,-148.041188,9548.656652
816.581322,612.876398,-444.123565,9696.697840
816.581638,383.047749,-1110.308913,9548.656652
816.581954,1072.533697,222.061783,9622.677246
816.582269,1915.238745,740.205942,10362.883188
816.582585,536.266849,296.082377,9622.677246
816.582901,689.485948,222.061783,9474.636058
816.583216,306.438199,-0.000000,8438.347739
816.583532,919.314598,-0.000000,9622.677246
816.583848,1072.533697,-74.020594,10510.924376
816.584163,459.657299,-0.000000,9474.636058
816.584479,0.000000,-222.061783,9918.759623
816.584795,-229.828649,-1036.288319,9400.615463
816.585110,842.705048,-592.164754,10362.883188
816.585426,612.876398,-222.061783,10140.821405
816.585742,-383.047749,518.144159,9030.512492
816.586057,0.000000,-148.041188,8956.491898
816.586373,612.876398,-148.041188,8512.368333
816.586689,1225.752797,-0.000000,9252.574275
816.587005,766.095498,-148.041188,10066.800811
816.587320,0.000000,-296.082377,9474.636058
816.587636,76.609550,-740.205942,9104.533087
816.587952,-153.219100,-222.061783,9400.615463
816.588267,1072.533697,-222.061783,10807.006753
816.588583,76.609550,-518.144159,9918.759623
816.588899,-306.438199,-0.000000,9474.636058
816.589214,0.000000,-296.082377,9474.636058
816.589530,766.095498,-0.000000,9178.553681
816.589846,1149.143247,962.267725,9622.677246
816.590161,76.609550,1184.329507,8956.491898
816.590477,76.609550,222.061783,9326.594869
816.590793,306.438199,-222.061783,9252.574275
816.591108,306.438199,222.061783,9844.739029
816.591424,536.266849,-0.000000,9696.697840
816.591740,0.000000,-222.061783,9326.594869
816.592056,-459.657299,-666.185348,8808.450710
816.592371,306.438199,-222.061783,9696.697840
816.592687,766.095498,-370.102971,10140.821405
816.593003,0.000000,370.102971,9474.636058
816.593318,-383.047749,-0.000000,9252.574275
816.593634,-306.438199,-518.144159,9400.615463
816.593950,0.000000,-296.082377,9622.677246
816.594265,153.219100,-518.144159,10140.821405
816.594581,-76.609550,-148.041188,9770.718434
816.594897,-229.828649,-518.144159,9474.636058
816.595212,0.000000,-962.267725,8956.491898
816.595528,689.485948,-592.164754,9622.677246
816.595844,1685.410096,-370.102971,9696.697840
816.596159,536.266849,1036.288319,8290.306550
